acc_x,acc_y,acc_z,label
-1.13414,1.0288849,0.873929,0
-1.4142609,1.2766876,1.394681,0
-0.9689331,1.353302,-0.4093504,0
-0.063934326,1.5855408,-2.2074003,0
0.023452759,1.4909668,-1.3047819,0
-0.27581787,1.0013428,0.805707,0
-0.40390015,0.80023193,1.1636324,0
-0.4230652,0.98339844,0.7087374,0
-0.31053162,0.78466797,0.61895466,0
-0.06991577,0.92832947,-0.2776823,0
-0.11898804,1.3461151,-0.71342754,0
-0.42066956,1.2467499,-0.32435894,0
-0.7223358,0.6984863,0.0539217,0
-0.8396454,1.0360718,0.21073627,0
-0.88035583,1.1904907,0.13293171,0
-0.75823975,0.8756561,-0.7026396,0
-0.5032654,1.2479553,-0.85826397,0
-0.07710266,1.4646301,-0.06338787,0
0.21380615,1.2120361,0.15568256,0
0.5477905,1.2323914,-0.23457623,0
1.0134583,1.7232056,-0.45006084,0
0.82192993,1.5196991,0.23348713,0
0.3718109,0.96543884,0.92420673,0
0.201828,1.2754822,0.64768696,0
0.029449463,1.3437195,0.3208742,0
-0.3656006,0.70207214,-0.31956768,0
-0.69718933,0.86009216,-0.51111126,0
-0.95217896,1.2204132,0.42741108,0
-1.1329346,0.9319153,0.44178486,0
-1.0694885,1.1473999,-0.07297039,0
-0.69718933,1.5065308,0.110180855,0
-0.5786743,1.2730865,-0.064593315,0
-0.79774475,1.0971222,-0.17233562,0
-0.78338623,1.1964722,0.091031075,0
-0.86598206,1.061203,0.17243671,0
-1.0575256,0.8756561,0.23707294,0
-0.86598206,1.2515411,0.5028353,0
-0.59902954,1.2419739,0.02998066,0
-0.4769287,0.8253784,-0.8786192,0
-0.40629578,1.1450043,-0.6356077,0
-0.24468994,1.3042145,0.15208149,0
-0.19322205,1.6046906,-0.24415874,0
0.05937195,1.7327728,-0.2704954,0
0.26287842,1.3066101,0.026394844,0
0.048599243,0.982193,-0.29085064,0
-0.21476746,1.1282501,-0.21184063,0
-0.4386139,0.8948059,0.3388338,0
-0.505661,1.0779572,-0.47879314,0
-0.24349976,1.4011841,-1.0569944,0
-0.12738037,1.4658203,-0.88699627,0
-0.12857056,1.3114014,-0.7014494,0
-0.33926392,1.9769897,-0.19267559,0
-0.1525116,1.7615051,0.25384235,0
-0.0064697266,1.4430847,0.19517231,0
0.32392883,1.4143524,-0.07776165,0
0.42687988,1.4406891,-0.50152874,0
0.35147095,1.171341,0.002453804,0
0.43286133,0.90797424,0.38432026,0
0.09768677,1.3664703,0.24306965,0
-0.23391724,1.6405945,0.35918903,0
-0.5786743,1.5448303,0.76739216,0
-0.74627686,1.5651855,1.0511141,0
-0.41467285,1.7902374,0.65964985,0
-0.18482971,1.7208099,-0.095721245,0
-0.29496765,1.5173035,-0.7445402,0
-0.33926392,1.7495422,-0.64158916,0
-0.38116455,1.9111481,-0.28126812,0
-0.3979187,1.9482574,0.19877338,0
-0.20039368,1.6370087,0.95293903,0
-0.020828247,1.2647095,0.5878267,0
0.11323547,0.99417114,-0.2896452,0
-0.028015137,0.93670654,-0.5637846,0
0.10964966,0.6122894,0.079068184,0
0.11444092,0.9486847,0.31489277,0
0.060577393,1.0193024,-0.02508831,0
0.5358124,1.3006287,-0.6068754,0
1.166687,1.5460358,-0.44287395,0
1.1595154,1.3796387,-0.36625957,0
1.2504883,1.5173035,0.016812325,0
1.340271,1.760315,0.27418232,0
1.0014954,1.3556976,0.3065157,0
0.5705414,1.1869049,0.4405794,0
0.47236633,1.234787,0.103009224,0
0.39456177,1.3700562,-0.37224102,0
0.29042053,1.4227295,-0.39618206,0
0.2532959,1.5196991,-0.38901043,0
0.17907715,1.7184143,-0.37703228,0
-0.019638062,1.5220947,-0.18669415,0
-0.27461243,1.2407684,-0.0945158,0
-0.43981934,1.416748,0.023999214,0
-0.58706665,1.3449249,0.31608295,0
-0.7091675,1.0815582,-0.46921062,0
-0.85520935,0.8744507,-0.52188396,0
-0.3584137,0.6960907,-0.3758421,0
-0.36320496,0.7391815,-0.14479351,0
-0.45298767,1.0001526,0.60099506,0
-0.4769287,0.9845886,0.37594318,0
-0.49128723,0.91156006,-0.18789959,0
-0.33088684,1.116272,-0.086138725,0
-0.25546265,1.4311066,-0.10888958,0
-0.43023682,1.3413239,-0.016711235,0
-0.33805847,0.9786072,0.48487568,0
-0.26504517,1.0635986,0.3903017,0
-0.15730286,1.1569672,-0.34231853,0
0.053390503,1.1019135,-0.68109417,0
0.33111572,1.2539368,-0.75770855,0
0.538208,1.555603,-0.253726,0
0.5765228,1.7040405,-0.071780205,0
0.6435547,1.5603943,-0.33394146,0
0.7764435,1.2180176,-0.7265806,0
0.988327,1.1976776,-0.8702421,0
1.2313385,1.2683105,-0.4440794,0
1.2265472,1.1210632,-0.21661663,0
1.0661316,0.88642883,-0.9073515,1
0.8985443,0.9845886,-0.51111126,1
0.59806824,0.6350403,-0.076556206,1
-0.2997589,0.6194763,2.474454,1
-0.31651306,0.7559509,0.43220234,1
-0.22554016,0.83135986,-0.5781431,1
-0.6145935,1.203659,-0.5242796,1
-0.67684937,1.0743713,-0.29085064,1
-0.6576843,0.7822876,0.5590944,1
-0.75465393,1.1390228,1.5910006,1
-0.936615,1.0552216,1.5275545,1
-1.4405975,0.24597168,0.4010744,1
-1.920639,0.26393127,-0.31717205,1
-1.2897644,0.105911255,-0.4656248,1
-0.58706665,0.135849,-0.38182354,1
-0.2494812,0.69369507,0.07546711,1
0.3167572,1.2910461,0.7841463,1
0.55737305,1.0468445,0.8404207,1
-0.19920349,0.43392944,0.20834064,1
-0.39312744,0.6529999,-0.0657835,1
-0.66007996,0.47702026,0.02279377,1
-1.4130554,-0.36573792,0.07786274,1
-1.7650146,0.036483765,-0.36625957,1
-1.3891144,0.52371216,-0.6727171,1
-1.1748352,0.5440521,-0.9288969,1
-1.1664581,0.982193,-0.90614605,1
-1.0886536,1.2240143,-0.16994,1
-0.89352417,0.85769653,-0.18908978,1
-1.1425171,0.4147644,-0.34590435,1
-1.2035675,0.2950592,0.26221943,1
-1.1461029,0.03529358,0.3507967,1
-1.1568756,-0.020980835,0.18560505,1
-0.55114746,0.36927795,-0.009524345,1
0.54660034,0.79904175,0.24425983,1
1.1702881,0.8624878,0.6428957,1
1.4252625,0.8553009,0.3280611,1
1.7508698,1.0707855,-0.098116875,1
2.0800781,0.9247284,-0.293231,1
1.2253418,0.36688232,0.107785225,1
0.38020325,0.44709778,0.6859865,1
0.04978943,0.4434967,0.42382526,1
-0.25904846,-0.032943726,0.6022005,1
-0.54875183,-0.17060852,0.7446413,1
-0.43623352,0.17175293,0.09461689,1
-0.36320496,-0.16821289,0.17483234,1
-0.7989502,-0.21730042,0.766202,1
-0.50086975,0.6673584,0.50043964,1
0.10366821,0.80622864,0.62014484,1
-0.07589722,0.10951233,1.1911745,1
-0.24588013,-0.15625,1.0786409,1
0.050994873,-0.01977539,0.35200214,1
0.023452759,-0.38249207,0.093426704,1
0.22218323,-0.49502563,0.2023592,1
0.3167572,0.28668213,-0.31239605,1
0.2090149,0.77989197,-0.7888365,1
-0.033996582,1.0983124,-0.88341045,1
-0.43623352,1.2910461,-1.0079069,1
-0.8169098,1.4143524,-0.9695921,1
-0.8899231,0.590744,-1.0917082,1
-1.3376465,0.15739441,-1.1084623,1
-1.7422638,0.20527649,-0.47041607,1
-1.4417877,0.29864502,-0.4548521,1
-0.9964752,-0.08442688,-0.28006268,1
-1.3101044,0.2914734,0.75303364,1
-0.92344666,0.74157715,0.32446003,1
-0.37158203,0.8696747,-0.2501402,1
-0.051956177,1.1330261,-0.545825,1
0.34907532,1.3509064,-0.41055584,1
0.56214905,1.1749268,0.08504963,1
0.6315918,0.97979736,0.7003603,1
0.86860657,0.6960907,0.80450153,1
1.048172,0.32139587,0.48248005,1
1.0230408,0.053253174,0.6129732,1
0.5370178,0.12147522,0.8224611,1
0.06895447,0.38365173,0.27657795,1
-0.25427246,0.6637726,-0.05142498,1
-0.4673462,0.9702301,0.040753365,1
-0.58825684,1.1976776,0.2921419,1
-0.21835327,1.1880951,0.03716755,1
0.24014282,0.9247284,-0.110079765,1
0.33470154,0.61468506,0.052731514,1
0.42448425,0.6661682,-0.013110161,1
0.51786804,0.59313965,0.22990131,1
0.28442383,0.6134949,0.4776888,1
-0.06272888,0.7583313,0.29453754,1
-0.22673035,0.8696747,-0.12922955,1
-0.37039185,1.0755768,-0.047839165,1
-0.36080933,1.3916016,-0.055010796,1
-0.40750122,1.4514618,-0.05382061,1
-0.44700623,1.124649,0.14849567,1
-0.4194641,0.77749634,0.18560505,1
-0.29736328,0.9139557,-0.20225811,1
-0.14413452,0.9630432,-0.63441753,1
-0.16567993,1.116272,-0.6427946,1
-0.19680786,1.5065308,-0.090929985,1
0.0066986084,1.8177795,0.3783388,1
-0.0016784668,1.7627106,0.26940632,1
-0.23631287,1.4945526,-0.5254698,1
-0.50805664,1.2407684,-0.8271513,1
-0.6804352,0.8648834,-0.6427946,1
-0.88752747,0.7858734,0.06828022,1
-0.71875,0.82177734,0.50402546,1
-0.30934143,0.92951965,0.3867159,1
-0.19560242,1.0863495,0.40227985,1
-0.18722534,1.1916962,0.107785225,1
-0.21116638,1.4011841,-0.34231853,1
-0.2207489,1.5651855,-0.27647686,1
-0.28179932,1.8153839,-0.14000225,1
-0.024429321,1.6681366,-0.17831707,1
0.14077759,1.500534,-0.08972454,1
0.1108551,1.3700562,-0.23338604,1
0.018676758,1.2012634,-0.052615166,1
-0.20758057,1.0659943,0.50762653,1
-0.44221497,0.7032776,0.68838215,1
-0.6624756,0.46983337,0.25861835,1
-0.86958313,0.566803,-0.13043499,1
-0.8611908,0.68052673,0.028775215,1
-0.75346375,0.8409424,0.5447359,1
-0.61698914,1.0935211,0.49685383,1
-0.3799591,1.2826691,0.21552753,1
-0.2315216,1.3066101,-0.14599895,1
-0.18603516,1.3281555,-0.5554075,1
-0.06871033,1.377243,-0.6104765,1
-0.049560547,1.2335815,-0.064593315,1
-0.12138367,1.1102905,0.33643818,1
-0.18243408,1.100708,0.13772297,1
-0.32728577,1.0576172,-0.37344646,1
-0.57748413,0.9498749,-0.66434,1
-1.0431519,0.8660736,-0.59730816,1
-1.3580017,0.96902466,-0.5757475,1
-1.454956,1.0995178,-0.3650694,1
-1.3783417,1.2563324,-0.42731,1
-1.2586365,1.5256805,-0.4656248,1
-1.1473083,1.6992645,-0.31598186,1
-1.1604767,1.6645508,-0.22261333,1
-1.0635071,1.5208893,-0.11845684,1
-0.82289124,1.3078003,5.8174133E-5,1
-0.5128479,1.0121307,-0.02748394,1
-0.16209412,0.9534607,-0.055010796,1
0.16352844,1.1581726,0.007229805,1
0.46759033,1.2228088,0.295743,1
0.4951172,1.3317566,0.63091755,1
0.5238495,1.4299164,0.5662813,1
0.36463928,1.329361,0.20116901,1
0.050994873,1.3916016,-0.08015728,1
-0.23631287,1.5340576,0.0251894,1
-0.29377747,1.4646301,0.16405964,1
-0.28419495,1.3449249,0.14729023,1
-0.26504517,1.2910461,-0.0071287155,1
-0.15849304,1.164154,-0.38901043,1
-0.16567993,1.0444489,-0.124453545,1
-0.13096619,1.0252991,0.42023945,1
-0.010055542,1.0420532,0.37115192,1
-0.010055542,1.0264893,0.19398212,1
-0.15490723,0.9953613,0.16405964,1
-0.20877075,1.0815582,0.16166401,1
-0.20399475,1.1976776,-0.0011472702,1
-0.3584137,1.1821136,-0.23936749,1
-0.40989685,1.1617584,-0.39140606,1
-0.34284973,1.1916962,-0.26570415,1
-0.19441223,1.2072449,0.033566475,1
-0.13096619,1.2419739,0.033566475,1
-4.8828125E-4,1.368866,0.1688509,1
0.10127258,1.4179382,0.24067402,1
0.05218506,1.3556976,0.4836855,1
-0.054351807,1.3652649,0.5878267,1
-0.15969849,1.3700562,0.2705965,1
-0.19560242,0.8924103,-0.2034483,1
-0.15371704,0.41716003,-0.63441753,1
-0.13694763,0.5308838,-0.53026104,1
-0.15490723,0.7547455,0.1293459,1
-0.15969849,0.9534607,0.537549,1
0.06295776,1.3281555,0.56986713,1
0.39216614,1.6884918,5.8174133E-5,1
0.6710968,1.9877625,-0.79602337,1
0.3095703,1.4694214,-0.77925396,1
0.023452759,1.1031036,-0.078951836,1
-0.47573853,0.942688,0.23707294,1
-0.605011,0.6098938,0.3388338,1
-0.62057495,0.48420715,0.22630024,1
-0.2099762,0.23519897,-0.047839165,1
0.41252136,0.04008484,-0.050219536,1
0.4364624,0.18252563,0.52198505,1
0.32513428,0.49977112,0.8284426,1
0.22576904,0.8253784,0.5124178,1
0.16352844,0.95825195,0.34241962,1
-0.11300659,1.1294403,-0.07297039,1
-0.17526245,1.0659943,-0.8570738,1
-0.19082642,0.9989624,-0.5601835,1
-0.24708557,1.0085297,0.010830879,1
-0.32369995,1.0049438,-0.03944683,1
-0.4051056,1.1593628,-0.110079765,1
-0.52241516,1.3712616,-0.086138725,1
-0.6229706,1.4011841,-0.29683208,1
-0.6900177,1.2563324,-0.41774273,1
-0.6624756,1.0959167,-0.28126812,1
-0.67684937,0.942688,-0.3363371,1
-0.6612854,0.8445282,-0.36146832,1
-0.52601624,0.90078735,-0.21184063,1
-0.32489014,0.9953613,-0.071780205,1
-0.08187866,1.0971222,0.052731514,1
0.10845947,1.2371826,0.27657795,1
0.22097778,1.4873657,0.28616047,1
0.44483948,1.5615997,0.019207954,1
0.31555176,1.4047699,0.24784565,1
-0.06512451,1.3066101,0.19877338,1
-0.11898804,1.2886505,0.11855793,1
-0.2099762,1.1916962,0.10899067,1
-0.10462952,1.0516357,0.21073627,1
0.031845093,1.1976776,0.3579836,1
0.19464111,1.1521912,0.0060396194,1
0.26885986,1.1090851,-0.545825,1
0.30119324,1.1533813,-0.3219633,1
0.31555176,1.2096405,-0.026278496,1
0.16711426,1.2635193,0.105389595,1
0.05458069,1.2910461,0.28616047,1
-0.17286682,1.2647095,0.23707294,1
-0.4278412,1.2072449,-0.17113018,1
-0.6361389,1.258728,-0.47400188,1
-0.6983948,1.1976776,-0.3578825,1
-0.6540985,1.0264893,0.20356464,1
-0.5068512,1.0312805,0.5423403,1
-0.29496765,1.0468445,0.43220234,1
-0.2901764,1.0360718,0.23827839,1
-0.49368286,1.0408478,-0.21423626,1
-0.58825684,1.0300751,-0.55180645,1
-0.46495056,1.1210632,-0.51829815,1
-0.42544556,1.1928864,-0.12564373,1
-0.24468994,1.1485901,0.1508913,1
-0.03878784,1.337738,-0.18310833,1
0.21260071,1.3233643,-0.2992277,1
0.18147278,1.2323914,-0.20584393,1
0.12879944,1.3233643,0.074276924,1
0.18984985,1.3520966,0.20834064,1
0.162323,1.1689453,-0.047839165,1
0.13838196,1.1066895,-0.23578167,1
0.11683655,1.1378174,0.0036439896,1
-0.04118347,1.0935211,0.24067402,1
-0.19322205,1.0169067,0.41424274,1
-0.25306702,1.037262,0.39869404,1
-0.3368683,1.0025482,0.045544624,1
-0.426651,0.922348,-0.25493145,1
-0.48770142,0.961853,-0.3076048,1
-0.50205994,1.0384674,-0.110079765,1
-0.4446106,1.1102905,0.010830879,1
-0.23989868,1.140213,0.016812325,1
-0.039993286,1.179718,0.013226509,1
0.08570862,1.1845093,0.03237629,1
0.22816467,1.1916962,-0.0071287155,1
0.3275299,1.2156372,-0.07297039,1
0.45321655,1.1150818,0.002453804,1
0.49032593,1.0719757,0.13772297,1
0.46398926,1.0528259,0.071881294,1
0.21141052,1.0348663,-0.117266655,1
-0.05316162,1.045639,-0.21661663,1
-0.24349976,1.0348663,-0.33513165,1
-0.3464508,1.0288849,-0.27408123,1
-0.41227722,1.179718,-0.06817913,1
-0.347641,1.3161926,0.002453804,1
-0.36080933,1.392807,-0.15317059,1
-0.41706848,1.3820343,-0.112475395,1
-0.40031433,1.4789886,0.06828022,1
-0.3009491,1.4634247,0.082654,1
-0.16567993,1.4670258,-0.026278496,1
-0.04597473,1.547226,0.074276924,1
0.09408569,1.5089264,-0.19507122,1
0.10725403,1.353302,-0.4560423,1
0.12760925,1.3042145,-0.18310833,1
0.09887695,1.3616791,0.067090034,1
0.011489868,1.2383728,0.13772297,1
-0.09265137,1.1078949,0.03237629,1
-0.2027893,1.0875397,-0.014315605,1
-0.4194641,1.021698,-0.15077496,1
-0.58706665,0.9750061,-0.083743095,1
-0.4673462,1.2383728,0.22511005,1
-0.21237183,1.3580933,0.31847858,1
0.013885498,1.4251251,0.004834175,1
0.20780945,1.531662,-0.02029705,1
0.40174866,1.4933624,-0.08494854,1
0.44963074,1.3497009,-0.09212017,1
0.40174866,1.2874603,0.04913044,1
0.23414612,1.2886505,0.17602253,1
-0.0028686523,1.0923309,0.27299213,1
-0.2494812,0.9786072,0.12095356,1
-0.45059204,0.9331207,-0.098116875,1
-0.5822754,0.86009216,-0.3363371,1
-0.7666321,0.6589813,-0.32796,1
-0.8384552,0.7056732,-0.093325615,1
-0.79774475,0.95466614,0.32566547,1
-0.7295227,0.9953613,0.41784382,1
-0.6864166,0.87086487,0.21552753,1
-0.5786743,0.9307251,0.04913044,1
-0.54156494,0.85769653,-0.10170269,1
-0.3584137,0.6996765,-0.30639935,1
-0.09744263,0.77030945,-0.078951836,1
0.09049988,0.85769653,0.30412006,1
0.12042236,0.88882446,0.16166401,1
0.18147278,0.89720154,0.06350422,1
-0.020828247,0.89959717,0.069485664,1
-0.2614441,0.82177734,0.064694405,1
-0.4158783,0.8840332,-0.026278496,1
-0.5128479,0.88642883,-0.18669415,1
-0.6337433,0.81700134,-0.26928997,1
-0.78338623,0.843338,-0.02508831,1
-0.6756439,0.9534607,0.11378193,1
-0.44940186,0.98579407,5.8174133E-5,1
-0.27700806,0.95466614,0.012021065,1
-0.16088867,0.9450836,-0.13762188,1
-0.033996582,0.9127655,-0.19986248,1
-0.049560547,0.87086487,0.11378193,1
-0.12019348,0.7463684,0.40467548,1
-0.20159912,0.71284485,0.26461506,1
-0.2997589,0.6996765,0.107785225,1
-0.3859558,0.74516296,-0.02029705,1
-0.4481964,0.7284088,0.107785225,1
-0.50445557,0.7367859,0.21912861,1
-0.5631256,0.76911926,0.16524982,1
-0.63734436,0.7870636,-0.098116875,1
-0.7438812,0.7355957,-0.22978497,1
-0.6588898,0.76672363,-0.14360332,1
-0.46974182,0.88882446,-0.021502495,1
-0.2961731,0.89959717,0.13172626,1
-0.10343933,0.96902466,0.22869587,1
0.040222168,1.0336761,0.08984089,1
0.13479614,1.006134,-0.13043499,1
0.14675903,1.0109253,-0.18310833,1
0.11802673,1.0971222,-0.07057476,1
0.10845947,1.076767,-0.03944683,1
0.048599243,1.0205078,-0.12922955,1
-0.044769287,1.0288849,-0.028674126,1
-0.1237793,1.0492401,0.06589985,1
-0.35003662,1.061203,0.117367744,1
-0.4374237,1.2228088,0.10180378,1
-0.5092468,1.495758,-0.102892876,1
-0.59065247,1.4514618,-0.15796185,1
-0.61938477,1.4035797,-0.14718914,1
-0.584671,1.511322,0.05152607,1
-0.6038208,1.5699768,0.06828022,1
-0.71754456,1.3880157,-0.050219536,1
-0.7378998,1.373642,-0.0370512,1
-0.76542664,1.2862549,0.05871296,1
-0.6912079,1.2635193,-0.114871025,1
-0.53678894,1.3066101,-0.02508831,1
-0.48651123,1.3305511,0.04673481,1
-0.44221497,1.274292,0.114972115,1
-0.48770142,1.329361,0.086239815,1
-0.5559387,1.3185883,-0.010714531,1
-0.7666321,1.2048645,-0.2381773,1
-0.7438812,1.1306305,-0.288455,1
-0.8013458,1.3018188,-0.37703228,1
-0.72831726,1.2706909,-0.28366375,1
-0.7319031,1.3963928,-0.23099041,1
-0.64572144,1.5173035,0.14251423,1
-0.7893677,1.7016602,0.19039631,1
-0.71754456,1.555603,0.36996174,1
-0.7307129,1.5639801,0.22271442,1
-0.545166,1.3880157,0.1915865,1
-0.5355835,1.5256805,-0.26211834,1
-0.2961731,1.3185883,-0.6044798,1
-0.2207489,1.4658203,-0.7409544,1
-0.19799805,1.447876,0.10419941,1
-0.30574036,1.6800995,0.17123127,1
-0.35482788,1.5196991,0.071881294,1
-0.5439606,1.7196045,-0.29562664,1
-0.6229706,1.4335022,-0.32675457,1
-0.6576843,1.5436401,-0.5159025,1
-0.76542664,1.3054199,0.01800251,1
-0.7690277,1.4754028,-0.1627531,1
-0.7809906,1.3161926,-0.013110161,1
-0.7690277,1.492157,-0.112475395,1
-0.72831726,1.2886505,0.39269733,1
-0.521225,1.5412445,0.23827839,1
-0.4625702,1.3892059,0.31489277,1
-0.20639038,1.4203339,-0.124453545,1
-0.09864807,1.2647095,-0.038256645,1
0.007904053,1.4598389,-0.15317059,1
-0.14653015,1.413147,0.18679523,1
-0.26623535,1.5029297,0.04194355,1
-0.545166,1.3832245,0.37115192,1
-0.54756165,1.4335022,0.20715046,1
-0.5750885,1.3832245,0.04913044,1
-0.39193726,1.5149078,-0.4488554,1
-0.29377747,1.3604736,-0.41653728,1
-0.17765808,1.3101959,-0.30639935,1
-0.13215637,1.1904907,0.21433735,1
-0.12498474,1.155777,0.16166401,1
-0.33566284,1.0264893,0.112576485,1
-0.4960785,1.195282,-0.04184246,1
-0.624176,1.3616791,-0.12564373,1
-0.76423645,1.5053253,-0.33273602,1
-0.89112854,1.5053253,-0.20584393,1
-0.9102783,1.5568085,-0.18669415,1
-0.7702179,1.6202545,-0.18908978,1
-0.79655457,1.5424347,-0.39378643,1
-0.5834656,1.7339783,-0.38901043,1
-0.38833618,1.887207,-0.119662285,1
-0.19322205,1.7962189,-0.2202177,1
0.058181763,1.586731,-0.119662285,1
0.3287201,1.4837799,-0.066988945,1
0.46998596,1.2778778,-0.15437603,1
0.37780762,0.9091797,-0.19746685,1
0.24612427,0.61109924,-0.062197685,1
-0.059143066,0.5332794,0.3112917,1
-0.4553833,0.393219,0.5626955,1
-0.7402954,0.26513672,0.4070711,1
-0.94859314,0.20169067,0.069485664,1
-1.1425171,0.2663269,-0.07536602,1
-1.1712494,0.32977295,0.27897358,1
-1.204773,0.40159607,0.49564838,1
-1.2478638,0.5332794,0.6800051,1
-1.3472137,0.63623047,0.2993288,1
-1.3651733,0.6470032,-0.124453545,1
-1.2694092,0.51293945,-0.42372417,1
-1.0347748,0.7439728,-0.36386395,1
-0.81451416,1.1856995,0.04194355,1
-0.5954437,1.2335815,0.03716755,1
-0.2602539,1.2778778,0.038357735,1
0.061767578,1.397583,0.103009224,1
0.3287201,1.2814789,-0.13043499,1
0.44125366,1.0863495,-0.16394329,1
0.55737305,1.0863495,0.067090034,1
0.5418091,0.858902,0.009625435,1
0.4185028,0.63383484,-0.34950542,1
0.06655884,0.6386261,-0.1412077,1
-0.39193726,0.56440735,0.10899067,1
-0.6181793,0.4494934,-0.086138725,1
-0.6505127,0.6206665,-0.100497246,1
-0.6732483,0.764328,0.05871296,1
-0.61938477,0.73439026,-0.069384575,1
-0.5068512,0.942688,-0.043047905,1
-0.49368286,1.2623138,0.064694405,1
-0.4374237,1.3317566,-0.16873455,1
-0.29257202,1.2659149,-0.15556622,1
-0.2602539,0.98817444,0.1843996,1
-0.46855164,0.7056732,0.24425983,1
-0.60621643,0.53208923,-0.0322752,1
-0.75346375,0.65179443,-0.42251873,1
-0.54756165,0.65419006,-0.08015728,1
-0.33805847,0.80023193,0.21194172,1
-0.41227722,0.9534607,0.25144672,1
-0.48291016,1.0875397,0.31968403,1
-0.5715027,1.2910461,0.028775215,1
-0.6540985,1.2671051,-0.26570415,1
-0.76423645,1.0420532,-0.53265667,1
-0.7438812,1.2156372,-0.6320219,1
-0.7738037,1.6837006,-0.39259624,1
-0.9282379,1.7076416,-0.07297039,1
-1.0287933,1.6681366,-0.12085247,1
-1.0886536,1.9494476,0.028775215,1
-1.1568756,1.8919983,-0.19627666,1
-1.1197662,1.6681366,-0.55780315,1
-0.93421936,1.808197,-0.13522625,1
-0.66007996,1.839325,0.34481525,1
-0.4888916,1.9482574,0.31489277,1
-0.73550415,1.95784,0.37473774,1
-0.82528687,1.9769897,0.028775215,1
-1.094635,2.0368347,-0.07297039,1
-1.3963013,2.0392303,0.11855793,1
-1.5638885,2.0739594,-0.17113018,1
-1.4489746,1.9949493,-0.33873272,1
-1.1903992,2.0907135,0.19039631,1
-0.9677429,1.8620605,0.23348713,1
-0.68522644,1.9901581,-0.14239788,1
-0.5535431,1.9302979,0.1796236,1
-0.66726685,1.4502563,-0.6918669,1
-0.9677429,1.2575226,-0.4368925,1
-0.8863373,1.2407684,0.119763374,1
-1.1269531,0.63983154,-0.7624998,1
-1.2263184,0.803833,-0.3794279,1
-0.9797058,1.2204132,0.40586567,1
-1.0299835,0.6158905,-0.22500896,1
-1.7183228,0.29864502,-0.5254698,1
-1.5986176,1.4933624,0.1688509,1
-1.47052,1.5963135,0.25742817,1
-1.7566223,1.0959167,-0.4081602,1
-1.7147369,2.6006775,0.28974628,1
-1.5387573,2.7826385,0.43101215,1
-1.8260651,1.6908875,-1.289218,1
-1.8907013,2.0583954,-1.0941038,1
-1.2849731,2.9478302,-0.31598186,1
-1.2370911,2.1864777,-0.30401897,1
-1.8703461,2.0356445,-1.0043211,1
-1.9661255,2.678482,-0.8235502,1
-1.6093903,2.8640442,-1.5621672,1
-1.2346954,1.9518433,-1.7704649,1
-1.9852753,1.8692474,-1.5633574,1
-2.0020294,2.515686,-1.0976896,1
-1.4489746,2.4737854,-0.8606596,1
-1.8164825,1.5831451,-0.35548687,1
-2.1995544,2.2750702,-0.50392437,1
-1.9373932,2.618637,-0.5709715,1
-1.8248596,2.2571106,-0.6619444,1
-1.8284607,1.5651855,-0.23578167,1
-1.1556854,2.0284576,-0.02029705,1
-0.71395874,2.0512085,0.9876528,1
-0.28419495,1.3987885,0.6967592,1
-0.09744263,1.2575226,0.7913332,1
0.46398926,1.1677399,1.181592,1
0.31436157,0.81340027,0.671628,1
0.11204529,0.65419006,0.064694405,1
-0.14413452,0.7355957,0.513608,1
-0.3572235,0.73799133,0.6069765,1
-0.60980225,0.80981445,0.8116884,1
-0.7510681,1.0863495,0.6285372,1
-0.7558594,1.2671051,0.4358034,1
-0.8193054,1.2802734,0.27299213,1
-1.0479431,1.4347076,0.15926838,1
-1.5519257,1.1090851,0.513608,1
-1.7051544,0.55244446,-0.086138725,1
-1.6919861,0.45787048,-0.55061626,1
-1.7362823,0.4255371,-0.3973875,1
-1.5710754,0.31900024,-0.24774456,1
-1.1676483,0.60749817,0.13532734,1
-1.1927948,0.8445282,0.28974628,1
-1.4657288,1.0097351,-0.5027342,1
-1.7506409,1.061203,-0.66434,1
-1.6572723,0.7164459,-0.21542645,1
-1.1832123,0.59672546,0.25623798,1
-0.76782227,1.0624084,0.20116901,1
-0.545166,1.0827484,-0.2321806,1
-0.25306702,0.8648834,-0.67750835,1
-0.09385681,0.8517151,-0.24895,1
-0.17166138,0.62306213,0.22750568,1
0.08331299,0.48181152,-0.03467083,1
0.29042053,0.7966461,0.25503254,1
0.15394592,0.83854675,0.55430317,1
0.0821228,0.52848816,0.31847858,1
0.18507385,0.93670654,0.17243671,1
0.019866943,1.085144,0.57226276,1
-0.29257202,0.5691986,0.7027559,1
-0.21595764,0.5416565,0.5674715,1
-0.13934326,0.9247284,0.5028353,1
-0.53079224,0.5799713,0.04913044,1
-0.6936035,0.55363464,-0.3698454,1
-0.6983948,0.8445282,-0.17233562,1
-0.92344666,0.74157715,-0.04423809,1
-1.2705994,0.25914,0.28017902,1
-1.2598267,0.50575256,0.014416695,1
-1.2239227,0.7751007,0.09940815,1
-1.5603027,0.40878296,0.11378193,1
-1.8356323,0.0017700195,0.21433735,1
-1.8823242,0.03529358,0.49325275,1
-1.9697113,-0.095199585,0.47530842,1
-1.9709167,-0.20054626,0.08984089,1
-1.5746765,0.12747192,-0.35429668,1
-1.1473083,0.630249,-0.5446348,1
-0.89112854,0.8732605,-0.64519024,1
-0.5152283,1.0324707,-0.8522825,1
-0.005264282,1.3125916,-0.7229948,1
0.52264404,1.3389282,-0.6032896,1
0.67707825,1.155777,-0.72420025,1
0.6100464,1.0252991,-0.7505369,1
0.37660217,0.9534607,-0.06817913,1
-0.06871033,0.35131836,0.25024128,1
-0.5164337,-0.16581726,0.22630024,1
-0.842041,-0.31666565,0.32566547,1
-0.7414856,-0.24961853,0.002453804,1
-0.84802246,-0.18617249,0.17004108,1
-0.69599915,0.38484192,0.48008442,1
-0.3979187,0.93551636,0.47051716,1
-0.13096619,1.3413239,0.5124178,1
-0.28538513,1.3724518,0.5878267,1
-0.1058197,1.7172089,0.107785225,1
-0.1237793,1.5041351,0.1508913,1
-0.060333252,1.1665497,-0.090929985,1
0.13240051,1.0492401,0.25144672,1
0.7608795,0.89001465,0.62733173,1
1.1080322,0.68292236,0.34721088,1
1.087677,0.56799316,0.11617756,1
0.9105072,0.34414673,0.17123127,1
0.6435547,0.551239,-0.08015728,1
0.24491882,0.55244446,0.119763374,1
0.12640381,0.8445282,-0.56257915,1
-0.16088867,1.1725311,-0.7996092,1
-0.6110077,1.2419739,-1.0486021,1
-1.1257629,1.2024689,-1.4735746,1
-1.2610321,1.4466705,-1.5370207,1
-1.5279846,1.5448303,-1.0426207,1
-1.7530365,1.1665497,-0.77566814,1
-1.8535919,0.8074188,-0.9648161,1
-1.9314117,0.8301697,-0.85826397,1
-2.320465,0.40040588,-0.17113018,1
-2.577835,0.046066284,0.04913044,1
-2.679596,0.15979004,0.6428957,1
-2.4964447,0.32618713,0.55790424,1
-2.35997,0.31420898,0.28376484,1
-1.9314117,0.8349457,0.12095356,1
-1.4872742,1.1390228,0.82127094,1
-1.1018219,1.416748,0.93378925,1
-0.5499573,1.6022949,0.7721834,1
-0.20639038,1.8201599,0.3496065,1
0.22576904,1.9769897,0.12095356,1
0.26408386,1.7651062,0.20356464,1
0.5250397,1.7938232,0.28376484,1
0.9320526,1.7184143,0.45135212,1
1.3354797,1.5364532,0.03956318,1
1.5102539,1.2683105,-0.059802055,1
1.6215973,1.1078949,-0.08255291,1
1.9364319,1.3173828,0.0251894,1
2.1734467,1.397583,0.014416695,1
1.3546295,1.456253,0.02039814,1
0.2197876,1.7986145,-0.31239605,1
-0.34405518,2.2978058,-0.4763975,1
-0.9964752,2.6605377,-0.43568707,1
-1.5674896,2.7359467,-0.6284208,1
-1.9577484,2.9514313,-0.82594585,1
-1.9038696,2.9346619,-0.6332121,1
-1.7650146,2.4318848,-0.3219633,1
-1.6931763,1.839325,-0.19986248,1
-1.5279846,1.5987091,-0.10649395,1
-1.6668396,1.3712616,0.31608295,1
-2.0870361,0.9845886,0.49325275,1
-2.3384247,0.57876587,0.14251423,1
-2.2510376,0.6709442,-0.026278496,1
-1.8990784,0.6170807,-0.02748394,1
-1.3603821,0.81100464,-0.5937071,1
-0.91386414,1.021698,-0.2776823,1
-0.3691864,1.334137,0.22869587,1
-0.08308411,1.3844147,0.32566547,1
0.18147278,1.5663757,0.36517048,1
0.23654175,1.5496216,0.8308382,1
0.35864258,1.6202545,0.40467548,1
0.41012573,1.7507324,-0.14718914,1
0.4185028,1.823761,-0.5817442,1
0.3789978,1.7507324,-0.288455,1
0.5418091,1.6980591,0.06589985,1
0.9021301,1.9793854,0.18800068,1
1.048172,2.0140991,-0.043047905,1
1.0816956,1.9769897,-0.24655437,1
1.019455,1.9985352,-0.14360332,1
0.6495514,1.768692,-0.13162518,1
0.32992554,1.7112274,0.15447712,1
-0.06272888,1.3604736,0.076672554,1
-0.37039185,1.3664703,-0.27528667,1
-0.600235,1.3868103,-0.29562664,1
-0.80493164,1.2443542,-0.70624065,1
-0.93421936,1.3485107,-0.6224394,1
-0.8384552,1.4418793,-0.18310833,1
-0.6648712,1.5053253,-0.013110161,1
-0.59902954,1.4550476,0.05631733,1
-0.5104523,1.5544128,-0.19627666,1
-0.60980225,1.531662,-0.07776165,1
-0.7307129,1.3078003,-0.0370512,1
-0.71875,1.4490662,-0.07297039,1
-0.6145935,1.7495422,-0.011919975,1
-0.5068512,1.6753235,-0.28006268,1
-0.44340515,1.744751,-0.28366375,1
-0.43981934,1.9255066,0.019207954,1
-0.4553833,1.87883,0.19877338,1
-0.39312744,1.7459412,0.3460207,0
-0.22554016,1.808197,0.2418642,0
-0.054351807,1.8512878,-0.19267559,0
0.22816467,1.6022949,-0.55780315,0
0.35984802,1.5388489,-0.5637846,0
0.2532959,1.5125122,0.16524982,0
0.2532959,1.6453857,0.25623798,0
0.20063782,1.6489868,-0.010714531,0
0.06535339,1.461029,-0.1986723,0
0.005508423,1.507721,0.093426704,0
0.06895447,1.6382141,0.29812336,0
0.034240723,1.4490662,-0.0071287155,0
-0.03878784,1.4670258,-0.25851727,0
-0.010055542,1.5639801,-0.26928997,0
-0.0040740967,1.6298218,-0.29802227,0
-0.15011597,1.5771484,-0.17233562,0
-0.129776,1.7387695,0.04194355,0
-0.21237183,1.6669312,0.0539217,0
-0.22554016,1.8225555,-0.49196148,0
-0.3799591,1.8345337,-0.44047832,0
-0.29736328,1.5352631,-0.04663372,0
-0.2602539,1.6980591,-0.38901043,0
-0.20758057,1.6633453,-0.093325615,0
-0.06871033,1.4969482,-0.18669415,0
-0.16926575,1.634613,-0.35190105,0
-0.28778076,1.4215393,0.44897175,0
-0.3177185,1.3401337,0.48128986,0
-0.27461243,1.4011841,-0.052615166,0
-0.35003662,1.3784332,-0.33873272,0
-0.5523529,1.1737366,-0.2716856,0
-0.6145935,1.1031036,0.03477192,0
-0.6588898,1.2479553,0.44537067,0
-0.4948883,1.0983124,0.3783388,0
-0.29377747,1.289856,-0.5087156,0
-0.18482971,1.3568878,-0.6607542,0
-0.25546265,1.2994232,0.08025837,0
-0.36679077,1.1833038,0.805707,0
-0.26983643,1.258728,0.671628,0
-0.09385681,1.1282501,0.06589985,0
-0.024429321,1.0600128,-0.5542021,0
-0.1453247,1.0695801,-0.21184063,0
-0.24468994,0.8804474,0.6943636,0
-0.18005371,0.98339844,0.5339632,0
-0.174057,1.0959167,0.076672554,0
-0.21835327,1.1354218,-0.2788725,0
-0.3117218,1.1234589,-0.4596281,0
-0.52241516,1.1485901,-0.15916729,0
-0.85162354,0.9642334,0.24306965,0
-0.9569702,0.819397,0.3507967,0
-0.80374146,1.0360718,-0.14000225,0
-0.71395874,1.2623138,-0.4847746,0
-0.7510681,0.9630432,-0.07297039,0
-0.6038208,1.0252991,0.0036439896,0
-0.45777893,1.1749268,0.15328693,0
-0.35003662,1.1366272,0.07067585,0
-0.28060913,1.1102905,-0.56857586,0
-0.33088684,1.2024689,-0.6727171,0
-0.40750122,1.1809082,-0.16156292,0
-0.5631256,1.0384674,0.295743,0
-0.5236206,0.9965668,0.2717867,0
-0.39672852,1.1545715,0.076672554,0
-0.31651306,1.1306305,-0.0011472702,0
-0.3296814,1.2431641,-0.2034483,0
-0.22193909,1.0971222,0.10180378,0
-0.174057,0.99417114,0.081448555,0
-0.13934326,1.0863495,0.057507515,0
-0.007659912,0.961853,0.44657612,0
-0.005264282,1.0193024,0.012021065,0
-0.23033142,1.2168274,-0.2788725,0
-0.5343933,1.2455597,-0.0071287155,0
-0.75465393,0.98579407,-0.08015728,0
-0.7319031,0.9378967,-0.23457623,0
-0.6588898,1.1569672,-0.00593853,0
-0.61938477,0.70088196,0.37473774,0
-0.42544556,0.80622864,-0.34950542,0
-0.41348267,1.0348663,0.04673481,0
-0.5379791,0.67933655,0.22990131,0
-0.5272064,0.72361755,-0.253726,0
-0.42425537,0.7535553,0.1341219,0
-0.4553833,0.432724,0.48128986,0
-0.37756348,0.48660278,0.2131319,0
-0.33447266,0.73799133,0.14849567,0
-0.41706848,0.49977112,-0.2429533,0
-0.52001953,0.56082153,-0.5709715,0
-0.68162537,0.5392761,-0.013110161,0
-0.61938477,0.41955566,0.25623798,0
-0.54756165,0.43392944,0.33164692,0
-0.3404541,0.47583008,0.2705965,0
-0.12258911,0.472229,-0.22140789,0
-0.15371704,0.3704834,-0.16156292,0
-0.12498474,0.2040863,0.35319233,0
-0.036392212,0.31781006,0.43340778,0
-0.028015137,0.43751526,0.22511005,0
-0.15609741,0.4901886,-0.35309124,0
-0.2782135,0.5201111,-0.7014494,0
-0.56073,0.51293945,-0.24415874,0
-0.67445374,0.33935547,0.33762836,0
-0.6229706,0.5081482,0.2131319,0
-0.45298767,0.32858276,0.093426704,0
-0.24110413,0.3249817,-0.22619915,0
-0.16688538,0.36688232,0.01800251,0
-0.18482971,0.36688232,0.56867695,0
-0.21237183,0.2555542,0.49325275,0
-0.2674408,0.23161316,-0.071780205,0
-0.40270996,0.25315857,-0.1914854,0
-0.52601624,0.08078003,0.26580524,0
-0.5643158,0.11430359,0.4764986,0
-0.51164246,0.32260132,0.3579836,0
-0.45417786,0.15739441,0.17841816,0
-0.3117218,0.22323608,-0.5374479,0
-0.30334473,0.2950592,-0.19507122,0
-0.38116455,0.072402954,0.4154482,0
-0.3069458,0.1933136,0.14251423,0
-0.3009491,0.40040588,-0.021502495,0
-0.28060913,0.15020752,-0.12803936,0
-0.37158203,0.19091797,-0.07297039,0
-0.387146,0.26872253,0.4369936,0
-0.426651,0.093948364,0.46214008,0
-0.2961731,0.008956909,0.15926838,0
-0.051956177,0.062820435,0.22390461,0
0.024658203,0.060424805,-0.04184246,0
-0.0016784668,0.14183044,-0.23457623,0
-0.054351807,0.22323608,0.0251894,0
-0.09983826,0.086761475,0.3112917,0
-0.111816406,0.13224792,0.19039631,0
-0.17884827,0.31062317,0.004834175,0
-0.29257202,0.23400879,-0.3471098,0
-0.32489014,0.115493774,-0.466815,0
-0.3404541,0.15260315,0.02039814,0
-0.38235474,0.08557129,0.5590944,0
-0.24827576,0.22802734,0.44537067,0
-0.1525116,0.24597168,0.41186237,0
-0.23510742,0.34654236,-0.023882866,0
-0.35362244,0.3166046,-0.013110161,0
-0.4374237,0.2842865,0.02279377,0
-0.43502808,0.3417511,-0.09930706,0
-0.3296814,0.3740692,-0.047839165,0
-0.16088867,0.4542694,-0.02269268,0
-0.063934326,0.49977112,-0.06338787,0
-0.08666992,0.51652527,0.083844185,0
-0.22314453,0.53208923,0.28376484,0
-0.174057,0.34414673,0.43101215,0
-0.055541992,0.6134949,0.047940254,0
-0.056747437,0.6769409,0.26940632,0
-0.042373657,0.5811615,0.01800251,0
-0.16088867,0.62905884,-0.42970562,0
-0.37158203,0.6158905,-0.062197685,0
-0.53318787,0.4028015,0.28376484,0
-0.4673462,0.5476532,-0.03467083,0
-0.39552307,0.69369507,0.02758503,0
-0.31053162,0.5213165,-0.013110161,0
-0.18005371,0.5081482,-0.19627666,0
-0.1525116,0.58595276,0.15687275,0
-0.18482971,0.4686432,0.4298067,0
-0.17166138,0.5380707,0.28974628,0
-0.19680786,0.6158905,0.059903145,0
-0.24349976,0.5416565,-0.19027996,0
-0.28659058,0.47583008,-0.15796185,0
-0.2494812,0.54286194,0.1341219,0
-0.24110413,0.551239,0.16764545,0
-0.11540222,0.4937744,0.062298775,0
-0.063934326,0.5225067,0.052731514,0
-0.031600952,0.5153198,0.21792316,0
-0.035202026,0.5919342,0.26580524,0
-0.04597473,0.67214966,0.02758503,0
-0.08068848,0.70925903,-0.25732708,0
-0.1010437,0.7260132,-0.2716856,0
-0.11300659,1.0528259,-0.19388103,0
-0.12019348,1.2599182,0.10180378,0
-0.15730286,1.2323914,0.02758503,0
-0.05076599,1.2826691,-0.0370512,0
-0.18722534,1.2778778,0.02279377,0
-0.3224945,1.0504303,-0.083743095,0
-0.43502808,1.0695801,-0.23578167,0
-0.45059204,1.1893005,-0.093325615,0
-0.44100952,1.100708,0.18800068,0
-0.31532288,1.0276794,0.23707294,0
-0.10343933,1.1749268,0.110180855,0
0.019866943,1.2060547,-0.05382061,0
-0.010055542,1.1031036,-0.12683392,0
-0.049560547,1.1019135,0.067090034,0
-0.13934326,1.0528259,0.20834064,0
-0.20399475,1.1258545,-0.08732891,0
-0.17884827,1.3149872,-0.20106792,0
-0.21955872,1.3604736,-0.093325615,0
-0.33088684,1.2754822,0.09701252,0
-0.40629578,1.1390228,0.23707294,0
-0.35601807,1.0743713,0.03716755,0
-0.2602539,1.1437988,-0.29683208,0
-0.18843079,1.1414032,-0.22380352,0
-0.20159912,1.1066895,-0.095721245,0
-0.10462952,1.1031036,0.03237629,0
-0.07470703,1.219223,0.01560688,0
-0.042373657,1.1126862,0.088635445,0
0.040222168,1.1856995,-0.028674126,0
0.06655884,1.2455597,0.067090034,0
-0.018432617,1.1761322,0.1843996,0
-0.033996582,1.0743713,0.04673481,0
-0.032806396,1.1976776,-0.13043499,0
-0.13694763,1.1450043,-0.15796185,0
-0.25546265,1.0624084,-0.21063519,0
-0.26504517,1.0791626,-0.13162518,0
-0.2997589,1.1485901,0.07786274,0
-0.30334473,1.0504303,0.14849567,0
-0.24349976,1.1019135,-0.14239788,0
-0.20758057,1.1653595,-0.14000225,0
-0.23750305,1.2706909,-0.117266655,0
-0.24110413,1.547226,-0.07057476,0
-0.06991577,1.9063568,0.16764545,0
0.028244019,1.839325,0.21194172,0
0.16950989,1.6477814,-0.46921062,0
0.12879944,1.784256,-0.70743084,0
-0.16926575,1.4622345,0.1915865,0
-0.2027893,1.2826691,0.083844185,0
0.061767578,1.8692474,-0.122057915,0
0.07254028,1.863266,0.117367744,0
0.12281799,1.5137024,-0.4596281,0
0.16950989,1.887207,-0.46441936,0
-0.07470703,1.9602203,0.5662813,0
-0.1812439,1.6573639,0.42142963,0
-0.10821533,1.6130676,-0.20225811,0
-0.15132141,1.7315826,-0.3111906,0
-0.19082642,1.6202545,-0.29802227,0
-0.1812439,1.7591095,-0.013110161,0
-0.14413452,1.7387695,0.2526369,0
-0.07470703,1.8333282,-0.086138725,0
-0.029205322,1.808197,-0.093325615,0
-0.16567993,1.8249512,-0.066988945,0
-0.14413452,1.6250458,-0.086138725,0
-0.18722534,1.7734833,-0.31717205,0
-0.09146118,1.7243958,-0.33752728,0
-0.10702515,1.8812256,-0.30639935,0
0.09529114,1.6573639,0.25503254,0
0.09049988,1.9398804,0.28495502,0
-0.0028686523,1.7459412,-0.015505791,0
-0.20399475,1.87883,-0.6224394,0
-0.33566284,1.5280762,-0.52907085,0
-0.5032654,1.6202545,-0.18429852,0
-0.45059204,1.6669312,0.30412006,0
-0.3009491,1.9757843,0.22390461,0
-0.019638062,1.6920776,0.10899067,0
0.15274048,1.8979797,-0.2381773,0
0.10725403,1.7100372,0.09223652,0
0.016281128,1.744751,0.17123127,0
-0.018432617,1.555603,0.105389595,0
0.13838196,1.784256,-0.05621624,0
0.21618652,1.6597595,-0.10888958,0
0.25689697,1.79982,-0.21661663,0
0.06895447,1.6944733,-0.33154583,0
-0.023223877,1.8955841,-0.069384575,0
-0.19920349,1.7519379,0.031170845,0
-0.129776,1.8405151,-0.19507122,0
-0.22554016,1.7471466,-0.56257915,0
-0.20639038,1.8213654,-0.46083355,0
-0.39312744,1.6908875,-0.1627531,0
-0.29377747,1.8644562,0.21433735,0
-0.31292725,1.8812256,0.103009224,0
-0.06871033,1.9063568,0.05152607,0
-0.095047,1.7196045,-0.34231853,0
0.03543091,1.7567139,-0.17352581,0
-0.13336182,1.7351685,-0.009524345,0
0.018676758,1.7256012,0.33404255,0
0.045013428,1.7327728,0.07067585,0
0.30717468,1.9111481,0.050335884,0
0.25808716,1.7866516,-0.24895,0
0.22457886,1.7662964,-0.35429668,0
-0.06991577,1.6250458,-0.24895,0
-0.12498474,1.4813843,0.21673298,0
-0.3368683,1.3592834,0.14610004,0
-0.2207489,1.2335815,0.21433735,0
-0.3584137,1.0791626,-0.00593853,0
-0.4386139,0.86009216,-0.066988945,0
-0.6828308,0.93551636,-0.27408123,0
-0.8492279,0.8301697,0.04913044,0
-0.83366394,0.9810028,-0.02029705,0
-0.58106995,1.1653595,0.08744526,0
-0.37516785,1.3820343,-0.2381773,0
-0.24468994,1.2551422,-0.1914854,0
-0.21595764,1.0564117,-0.15796185,0
-0.1812439,1.1270447,0.023999214,0
-0.18482971,1.0312805,0.2777834,0
-0.2099762,0.9929657,-0.071780205,0
-0.13215637,0.96902466,-0.24415874,0
-0.134552,1.3197784,-0.29085064,0
-0.21955872,1.250351,0.09223652,0
-0.23750305,1.037262,-0.062197685,0
-0.24110413,1.2299957,-0.39978313,0
-0.387146,1.2012634,0.1341219,0
-0.4374237,0.9558563,0.38192463,0
-0.39193726,1.1150818,-0.00593853,0
-0.45777893,1.1330261,0.091031075,0
-0.46376038,0.8768463,-0.076556206,0
-0.36799622,0.84931946,-0.20584393,0
-0.22912598,0.8361511,0.24665546,0
-0.116607666,0.75234985,0.3675661,0
-0.063934326,0.685318,0.23707294,0
-0.06512451,0.8409424,0.06828022,0
-0.14294434,0.8624878,0.083844185,0
-0.347641,0.7822876,-0.081347466,0
-0.426651,0.70925903,-0.293231,0
-0.38475037,0.77749634,-0.1627531,0
-0.23272705,0.6386261,0.25024128,0
-0.09265137,0.77030945,0.01800251,0
-0.14772034,0.92593384,-0.14958477,0
-0.10942078,0.7355957,-0.11128521,0
-0.17047119,0.645813,-0.16873455,0
-0.19441223,0.7104492,0.13053608,0
-0.09864807,0.76672363,0.06110859,0
-0.007659912,0.7499542,-0.1412077,0
0.11323547,0.7176361,0.16764545,0
0.13598633,0.70207214,0.2634096,0
0.017471313,0.903183,-0.11606121,0
-0.1632843,0.7906647,-0.18908978,0
-0.20159912,0.7044678,-0.10649395,0
-0.1632843,0.80862427,0.19877338,0
-0.09265137,0.7427826,0.4657259,0
0.009094238,0.62187195,-0.07297039,0
0.010284424,0.6877136,-0.56257915,0
-0.18843079,0.80262756,-0.10649395,0
-0.33207703,0.64460754,0.419034,0
-0.28778076,0.7571411,0.4298067,0
-0.19560242,0.9678345,0.14729023,0
-0.1010437,0.83854675,-0.12564373,0
-0.1237793,0.7367859,-0.29802227,0
-0.11779785,0.75115967,0.033566475,0
-0.15011597,0.7978363,0.34122944,0
-0.04597473,0.70088196,0.29095173,0
0.10606384,0.84213257,-0.21901226,0
0.16711426,1.1294403,-0.36267376,0
0.08691406,1.1569672,-0.13283062,0
-0.057937622,1.1653595,0.12334919,0
-0.12019348,1.2299957,0.30891132,0
-0.1010437,1.2299957,0.14370441,0
-0.06752014,1.0995178,-0.31479168,0
-0.10462952,1.0348663,-0.54703045,0
-0.18962097,1.0588074,-0.026278496,0
-0.12738037,1.0983124,0.41305256,0
0.022262573,1.1450043,0.35319233,0
0.17190552,1.2252045,0.04913044,0
0.18984985,1.1222534,-0.23457623,0
0.045013428,1.0983124,-0.22978497,0
-0.14892578,1.1485901,0.028775215,0
-0.19920349,1.1629639,0.16405964,0
-0.18243408,1.1258545,0.12814045,0
-0.04837036,1.1737366,-0.102892876,0
-0.03878784,1.2443542,-0.14000225,0
-0.09625244,1.1366272,-0.14958477,0
-0.14653015,1.0324707,-0.2597227,0
-0.11061096,1.0504303,-0.069384575,0
-0.007659912,1.0887451,0.122159004,0
0.08331299,1.0312805,0.20596027,0
0.16950989,1.1366272,0.06828022,0
0.10006714,1.3796387,-0.0657835,0
-0.022033691,1.5041351,-0.0011472702,0
-0.14173889,1.4347076,0.09223652,0
-0.07350159,1.2575226,0.07067585,0
0.018676758,1.3173828,-0.37344646,0
-0.04597473,1.2048645,-0.122057915,0
-0.15609741,1.0647888,0.15926838,0
-0.090270996,1.4263153,0.03477192,0
-0.037597656,1.705246,0.031170845,0
-0.06752014,1.2599182,-0.24774456,0
0.019866943,1.0085297,-0.44168377,0
0.05937195,1.4538574,0.16045856,0
0.09289551,1.4490662,0.5243807,0
0.1730957,1.3868103,-0.13283062,0
0.12281799,1.4239197,-0.3578825,0
-0.14294434,1.3748474,-0.059802055,0
-0.33926392,1.3149872,0.112576485,0
-0.22314453,1.5460358,-0.25732708,0
-0.060333252,1.6777191,-0.26689434,0
0.08331299,1.4490662,-0.18789959,0
0.055786133,1.4574432,-0.07776165,0
-0.042373657,1.5975037,0.17123127,0
-0.13934326,1.6011047,-0.0047330856,0
-0.19441223,1.4873657,-0.04663372,0
-0.063934326,1.3497009,0.047940254,0
0.036621094,1.547226,-0.122057915,0
0.13957214,1.5244904,0.124554634,0
0.1910553,1.3353424,-0.0071287155,0
0.24372864,1.5232849,-0.22140789,0
0.14196777,1.6226501,-0.105288506,0
-0.036392212,1.4382935,0.045544624,0
-0.016036987,1.2647095,0.04913044,0
-0.031600952,1.5268707,0.026394844,0
-0.060333252,1.5615997,0.093426704,0
-0.1405487,1.5173035,-0.22978497,0
-0.116607666,1.5065308,-0.18669415,0
-0.10462952,1.507721,0.04433918,0
-0.15371704,1.507721,0.21792316,0
-0.12857056,1.4059753,-0.18190289,0
-0.10223389,1.5364532,-0.56976604,0
-0.1058197,1.4909668,-0.12683392,0
-0.11300659,1.3796387,0.12695026,0
-0.044769287,1.5508118,0.050335884,0
-0.005264282,1.5903168,-0.0610075,0
-0.08547974,1.511322,-0.17352581,0
-0.12498474,1.4586487,-0.19388103,0
-0.28060913,1.6717224,0.076672554,0
-0.3224945,1.4347076,0.24665546,0
-0.22314453,1.2299957,-0.15677166,0
-0.08666992,1.1880951,-0.2716856,0
-0.049560547,1.1138763,-0.05382061,0
-0.024429321,0.94747925,0.062298775,0
0.050994873,0.8756561,-0.066988945,0
0.013885498,1.0839539,0.1843996,0
0.037826538,1.0779572,0.4693117,0
0.08331299,1.1485901,-0.0047330856,0
0.028244019,1.258728,-0.25253582,0
-0.16088867,1.2072449,-0.288455,0
-0.26983643,0.9893799,0.18200397,0
-0.09265137,1.1138763,0.04913044,0
0.016281128,1.2575226,-0.1627531,0
0.15274048,1.0671844,-0.35309124,0
0.16830444,1.0552216,-0.640399,0
0.1335907,1.2623138,0.07786274,0
0.058181763,1.2706909,0.63091755,0
0.10366821,1.0683899,0.32566547,0
0.24612427,1.2335815,-0.30879498,0
0.17070007,1.219223,-0.2896452,0
0.08810425,1.0348663,-0.069384575,0
0.047409058,1.0336761,0.2418642,0
0.1108551,1.1533813,0.40347004,0
0.26885986,1.1856995,0.071881294,0
0.37660217,1.100708,-0.24895,0
0.32392883,1.1294403,-0.35429668,0
0.18147278,1.0205078,0.21073627,0
0.08091736,1.0133209,0.3675661,0
0.047409058,1.1102905,0.05871296,0
-0.04597473,1.2802734,-0.19388103,0
-0.060333252,1.1749268,-0.20465374,0
0.029449463,1.1856995,-0.36746502,0
-0.025619507,1.1186676,-0.00833416,0
0.09887695,1.0133209,0.37594318,0
0.31315613,1.1042938,0.059903145,0
0.4077301,1.2264099,-0.253726,0
0.22697449,1.1677399,-0.15077496,0
0.1156311,1.0803528,0.13293171,0
0.05218506,1.140213,0.1628542,0
-0.04837036,1.1270447,0.13172626,0
-0.06871033,1.0743713,-0.15677166,0
-0.061538696,1.1737366,-0.43928814,0
-0.17884827,1.1605682,-0.105288506,0
-0.29736328,1.1821136,0.41784382,0
-0.13694763,1.1390228,0.39390278,0
0.053390503,1.0887451,-0.03467083,0
0.21141052,0.9917755,-0.42851543,0
0.26646423,1.0731812,-0.33513165,0
0.2987976,1.0300751,0.3615694,0
0.3167572,1.0408478,0.5734682,0
0.33590698,1.1090851,0.1508913,0
0.22816467,1.1581726,-0.40097332,0
0.07374573,0.98698425,-0.6068754,0
-0.044769287,1.0205078,-0.11128521,0
-0.20877075,1.0300751,0.766202,0
-0.26383972,0.9786072,0.5160036,0
-0.17526245,1.0911255,-0.42251873,0
-0.12498474,1.1629639,-0.7301817,0
-0.19560242,1.0073395,-0.14479351,0
-0.08427429,0.88642883,0.5088167,0
0.16113281,1.0695801,0.45135212,0
0.39575195,1.1689453,0.0539217,0
0.42208862,1.0300751,-0.46322918,0
0.29640198,1.0288849,-0.46202374,0
0.053390503,1.1653595,0.22390461,0
-0.063934326,1.0336761,0.5662813,0
-0.055541992,0.9965668,0.107785225,0
0.0713501,1.0887451,-0.41774273,0
0.041412354,1.0731812,-0.34829998,0
-0.0723114,0.9331207,0.06589985,0
-0.029205322,1.0408478,0.26221943,0
-0.010055542,1.124649,0.11378193,0
0.028244019,1.0097351,-0.3291502,0
-0.026824951,1.1366272,-0.34829998,0
-0.07350159,1.1497955,0.0539217,0
-0.18962097,1.2718964,-0.071780205,0
-0.2099762,1.1833038,-0.02029705,0
-0.037597656,1.1198578,-0.10649395,0
0.09648132,1.0959167,-0.19388103,0
0.15634155,1.0911255,0.0539217,0
0.23175049,1.0803528,0.122159004,0
0.22337341,1.1378174,0.04433918,0
0.18267822,1.2970276,0.050335884,0
0.18267822,1.1701355,0.32566547,0
0.10725403,1.1210632,0.05871296,0
0.13000488,1.1809082,-0.07057476,0
0.029449463,1.2383728,-0.26570415,0
-0.005264282,1.1198578,-0.34471416,0
0.10006714,1.1545715,-0.10649395,0
0.26885986,1.1653595,0.4010744,0
0.4376526,1.1749268,0.37115192,0
0.4867401,1.2264099,0.02998066,0
0.44244385,1.4155426,-0.28006268,0
0.30717468,1.4825897,-0.17233562,0
0.20661926,1.1904907,0.16645527,0
0.3383026,1.2491455,-0.21184063,0
0.42808533,1.4754028,-0.21184063,0
0.2700653,1.3568878,0.13172626,0
0.2521057,1.3365326,0.013226509,0
0.25450134,1.8500977,-0.20584393,0
0.005508423,1.6394043,0.02758503,0
-0.17047119,1.0360718,-0.1412077,0
-0.12738037,1.3114014,-0.17233562,0
-0.07110596,1.6525726,0.45135212,0
0.05697632,1.447876,0.1293459,0
0.19824219,1.5101166,-0.67750835,0
0.22697449,1.5639801,-0.41774273,0
0.14077759,1.4909668,0.15926838,0
0.21380615,1.555603,0.3101015,0
0.3610382,1.6884918,0.038357735,0
0.35984802,1.5687714,-0.2824583,0
0.21141052,1.4143524,-0.3794279,0
0.060577393,1.3185883,0.023999214,0
0.017471313,1.4406891,0.32207966,0
0.06895447,1.4658203,0.17123127,0
0.22697449,1.4239197,-0.24655437,0
0.498703,1.5795441,-0.2896452,0
0.5370178,1.6094818,0.18679523,0
0.51068115,1.4203339,0.3208742,0
0.53941345,1.6202545,-0.3471098,0
0.5346222,1.6034851,-0.37344646,0
0.49751282,1.413147,-0.25493145,0
0.55856323,1.4251251,-0.24415874,0
0.48075867,1.6633453,0.023999214,0
0.3275299,1.4658203,0.0060396194,0
0.30596924,1.4598389,-0.09691143,0
0.24014282,1.5400391,0.12814045,0
0.13838196,1.3580933,0.1508913,0
0.0066986084,1.4730072,-0.24055767,0
-0.031600952,1.4239197,-0.06338787,0
0.013885498,1.2862549,0.19517231,0
0.13719177,1.397583,0.21552753,0
0.27963257,1.6932678,-0.100497246,0
0.39456177,1.7303772,-0.34112835,0
0.5058899,1.595108,-0.6296263,0
0.5489807,1.5520172,-0.047839165,0
0.5645447,1.4263153,0.48966694,0
0.553772,1.4490662,0.14130878,0
0.61602783,1.4155426,-0.2202177,0
0.62919617,1.6382141,-0.6104765,0
0.493927,1.6441956,-0.17711163,0
0.4005432,1.3796387,0.2813692,0
0.4651947,1.5903168,0.08744526,0
0.33351135,1.4969482,0.17004108,0
0.2592926,1.3161926,-0.035861015,0
0.061767578,1.3987885,-0.3471098,0
-0.13215637,1.3305511,0.22869587,0
-0.33566284,1.3449249,0.30531025,0
-0.31411743,1.3401337,0.42741108,0
-0.17765808,1.3916016,0.064694405,0
-0.012451172,1.432312,-0.39978313,0
-0.014846802,1.4646301,-0.6535673,0
0.08451843,1.3748474,-0.2609129,0
0.17788696,1.713623,-0.06817913,0
0.41731262,1.6453857,0.34840107,0
0.46759033,1.8285522,-0.41295147,0
0.51426697,1.3796387,-0.33873272,0
0.34188843,1.6298218,-0.5087156,0
0.21858215,1.2240143,0.4070711,0
0.25689697,1.4347076,0.28376484,0
0.40293884,1.4730072,-0.1914854,0
0.59687805,1.5903168,-0.30401897,0
0.4651947,1.713623,-0.49673748,0
0.5202637,1.3808289,0.34122944,0
0.29519653,1.6800995,-0.14479351,0
0.16590881,1.4119568,0.1688509,0
0.07493591,1.3844147,-0.23578167,0
0.030639648,1.397583,-0.52188396,0
-0.039993286,1.3820343,0.09701252,0
-0.1812439,1.3269653,0.34362507,0
0.039016724,1.1761322,0.114972115,0
0.16711426,1.6944733,-0.6511717,0
0.1443634,1.3389282,0.095822334,0
0.23414612,0.9750061,0.2670107,0
0.1802826,1.4311066,0.071881294,0
0.060577393,1.2575226,0.6141634,0
-0.07710266,1.3245697,-0.40695477,0
0.028244019,1.3449249,-0.37105083,0
0.0066986084,1.4706116,0.31489277,0
0.0066986084,1.085144,0.4082613,0
0.26766968,1.2431641,-0.209445,0
0.27485657,1.250351,-0.61645794,0
0.3275299,0.8469238,-0.17473125,0
0.3718109,1.0145111,-0.110079765,0
0.4185028,0.9331207,0.49685383,0
0.45202637,1.1270447,-0.25253582,0
0.54299927,1.2120361,-0.5817442,0
0.533432,1.2335815,-0.37224102,0
0.44602966,0.9606476,0.19039631,0
0.46398926,1.1773224,0.30291462,0
0.51786804,1.2012634,0.19398212,0
0.48434448,1.1689453,-0.09691143,0
0.40174866,0.89720154,-0.07536602,0
0.375412,0.95825195,0.29095173,0
0.3287201,0.9845886,0.29334736,0
0.27604675,0.9486847,0.07546711,0
0.3275299,0.9953613,-0.074160576,0
0.3466797,1.274292,-0.07057476,0
0.3574524,1.1426086,0.047940254,0
0.280838,1.0025482,-0.29204082,0
0.3897705,1.1306305,-0.29802227,0
0.50349426,1.0971222,0.119763374,0
0.5920868,1.0899353,0.03477192,0
0.68904114,1.234787,-0.21901226,0
0.830307,1.2491455,-0.26809978,0
0.7189789,1.0396576,0.06110859,0
0.553772,0.80023193,0.44897175,0
0.4879303,0.8373413,0.68119526,0
0.35505676,0.80262756,0.33285236,0
0.25808716,0.95106506,-0.38540936,0
0.09169006,0.97740173,-0.2381773,0
0.024658203,1.0025482,0.23229694,0
-0.08068848,1.1665497,0.1736269,0
-0.020828247,1.1845093,-0.2202177,0
0.09648132,1.1605682,-0.73974895,0
0.32273865,1.2072449,-0.6427946,0
0.4041443,0.9235382,0.28017902,0
0.5753174,0.8948059,0.49564838,0
0.8482666,1.2084503,0.13651752,0
0.97276306,1.1222534,-0.26211834,0
0.99909973,0.9091797,-0.6116667,0
1.0050812,0.91874695,0.0060396194,0
1.0146637,0.9893799,0.6249361,0
0.8602295,0.97740173,0.11378193,0
0.77404785,1.0540161,-0.21782207,0
0.68066406,0.9702301,-0.031069756,0
0.5082855,0.91755676,0.08025837,0
0.3215332,1.0731812,0.28376484,0
0.18746948,1.0013428,0.33045673,0
0.15513611,0.86009216,0.06350422,0
0.15992737,1.0336761,-0.42372417,0
0.11204529,1.2635193,-0.22140789,0
0.048599243,0.9139557,0.05152607,0
0.3670349,0.9989624,-0.1412077,0
0.55137634,1.2970276,-0.06817913,0
0.65193176,0.9702301,0.23229694,0
0.82551575,0.9750061,-0.4596281,0
0.9212799,1.1019135,-0.23697186,0
0.7548828,0.81100464,0.2921419,0
0.5477905,0.82058716,0.12574482,0
0.4759674,0.94747925,0.4764986,0
0.2592926,0.8948059,0.22390461,0
0.12402344,0.95825195,-0.19027996,0
0.007904053,0.99057007,0.02039814,0
0.024658203,0.89001465,0.21673298,0
0.12640381,1.0947266,-0.18789959,0
0.36463928,1.0899353,0.067090034,0
0.46159363,0.98579407,-0.42372417,0
0.6279907,0.98339844,-0.35190105,0
0.74650574,0.7834778,0.36996174,0
0.92607117,0.9522705,-0.07536602,0
1.0805054,1.2264099,-0.37823772,0
1.0649414,0.90797424,-0.08494854,0
1.003891,0.9642334,-0.21063519,0
0.9308624,1.1258545,0.23229694,0
0.8279114,1.0444489,0.34362507,0
0.5813141,0.9714203,-0.31239605,0
0.60165405,0.8720703,-0.02508831,0
0.5741272,0.7906647,0.23588276,0
0.593277,0.8181915,0.06350422,0
0.5657501,1.116272,-0.2501402,0
0.5154724,1.0384674,0.02039814,0
0.56814575,0.9043884,0.11378193,0
0.5130768,1.1629639,0.26461506,0
0.4376526,0.98579407,0.5602999,0
0.414917,0.94029236,-0.35548687,0
0.42089844,1.0324707,-0.41774273,0
0.39935303,0.95706177,0.2670107,0
0.5238495,1.0947266,0.25503254,0
0.5920868,1.1473999,-0.13162518,0
0.5657501,1.1042938,-0.40217876,0
0.47955322,0.8541107,-0.23578167,0
0.43286133,0.8924103,0.29812336,0
0.35505676,0.9343109,0.3292513,0
0.30836487,1.1138763,-0.14360332,0
0.3682251,0.98339844,-0.2597227,0
0.37420654,1.0432434,-0.2381773,0
0.47357178,1.100708,0.122159004,0
0.493927,1.337738,0.045544624,0
0.6244049,1.3197784,-0.32556438,0
0.909317,1.4813843,-0.7002592,0
1.0816956,1.6178589,-0.13762188,0
0.98353577,1.2407684,0.1401186,0
0.9763489,1.1749268,-0.083743095,0
0.78482056,1.1617584,0.28735065,0
0.62919617,1.0408478,0.2418642,0
0.5884857,1.3497009,-0.22500896,0
0.3466797,1.5244904,0.076672554,0
0.13838196,1.0755768,0.117367744,0
0.06295776,1.392807,-0.17831707,0
0.14675903,1.6166534,0.34241962,0
0.23535156,1.7064362,-0.15677166,0
0.34786987,1.8046112,-0.63800335,0
0.29519653,1.6729279,-0.023882866,0
0.26527405,1.2958374,0.6069765,0
0.21739197,1.6717224,-0.0047330856,0
0.19464111,1.476593,0.23827839,0
0.1910553,1.1761322,-0.24176311,0
0.38858032,1.1138763,-0.56976604,0
0.414917,1.5065308,-0.069384575,0
0.37301636,0.90797424,0.845212,0
0.49032593,1.0983124,-0.19267559,0
0.35386658,1.3963928,-0.41653728,0
0.07374573,1.1414032,0.112576485,0
-0.07110596,0.724823,-0.05861187,0
0.012680054,1.2048645,-0.14839458,0
0.016281128,1.1066895,0.25623798,0
0.32992554,0.95466614,-0.29204082,0
0.5848999,1.3018188,-0.937274,0
0.7213745,1.116272,0.1113863,0
0.57891846,1.0564117,0.05871296,0
0.65792847,1.0995178,0.16045856,0
0.6112366,1.3173828,-0.15916729,0
0.617218,1.1569672,-0.24055767,0
0.55737305,1.2599182,0.023999214,0
0.5202637,1.2359772,0.3292513,0
0.3394928,1.500534,-0.3004179,0
0.19824219,1.4095612,-0.06338787,0
0.13119507,1.3365326,-0.3363371,0
0.20780945,1.5017395,-0.3399229,0
0.039016724,1.5963135,0.43459797,0
0.12162781,1.2180176,0.75661945,0
0.31315613,1.5939178,-0.47279644,0
0.39337158,1.5651855,-0.064593315,0
0.40174866,1.3054199,-0.29443645,0
0.5082855,1.1593628,-0.3076048,0
0.6794739,1.1893005,0.01560688,0
0.7524872,1.1785278,0.088635445,0
0.7656555,0.9139557,0.16645527,0
0.87579346,1.0564117,0.093426704,0
0.65193176,1.1138763,0.5124178,0
0.34907532,0.8361511,0.5351534,0
0.2532959,0.89601135,-0.41774273,0
0.16711426,1.1785278,-0.8067961,0
0.007904053,1.1390228,-0.1627531,0
0.27963257,0.76672363,0.59859943,0
0.5669403,1.2539368,0.18081379,0
0.538208,1.1461945,0.41424274,0
0.49751282,1.0025482,-0.5865202,0
0.4580078,1.1821136,-0.6463804,0
0.38258362,1.0683899,0.17841816,0
0.42329407,1.1545715,0.2717867,0
0.5418091,1.1809082,0.028775215,0
0.6387634,1.1785278,-0.5817442,0
0.47955322,1.0731812,-0.2034483,0
0.34428406,1.0444489,0.26820087,0
0.21020508,1.0935211,0.41663837,0
0.2772522,1.1509857,0.25024128,0
0.39216614,1.0947266,-0.32796,0
0.4759674,1.1569672,-0.54703045,0
0.4256897,1.0516357,0.01800251,0
0.3502655,1.1761322,0.5878267,0
0.44125366,1.0659943,0.7039461,0
0.533432,1.0049438,0.088635445,0
0.53941345,1.1569672,-0.7026396,0
0.37780762,1.1749268,-0.65954876,0
0.34069824,0.7260132,0.04673481,0
0.30717468,0.9319153,0.12574482,0
0.35624695,0.79545593,0.908658,0
0.4484253,0.83854675,0.04673481,0
0.49630737,1.2096405,-0.31479168,0
0.25808716,0.8541107,0.26940632,0
0.16352844,0.8541107,-0.32316875,0
0.13119507,1.234787,-0.719409,0
0.36224365,1.0109253,-0.07057476,0
0.51426697,0.9450836,-0.3866148,0
0.88656616,1.2910461,0.105389595,0
0.7225647,1.2311859,0.43938923,0
0.375412,0.89959717,-0.045443535,0
0.25450134,1.0516357,-0.3758421,0
0.24372864,1.1581726,0.2813692,0
0.10964966,0.7463684,0.22150898,0
0.053390503,1.1114807,-0.37463665,0
0.12162781,0.8983917,0.40467548,0
0.31555176,0.863678,0.052731514,0
0.41371155,1.3269653,-0.42491436,0
0.47117615,1.1114807,0.379529,0
0.67826843,0.8553009,0.08984089,0
0.82432556,1.061203,0.12695026,0
0.8733978,0.9307251,0.6752138,0
0.77523804,1.0671844,-0.4261198,0
0.5453949,1.0887451,-0.8858061,0
0.019866943,1.0336761,-0.6691313,0
-0.19441223,0.67214966,0.31489277,0
-0.174057,1.164154,0.074276924,0
-0.07710266,1.3185883,0.15926838,0
0.055786133,1.1497955,-0.4560423,0
0.16830444,1.0408478,-0.57335186,0
0.17907715,0.79545593,0.26940632,0
0.35864258,0.74157715,0.26940632,0
0.48194885,0.85050964,0.4549532,0
0.8746033,0.6350403,0.040753365,0
0.9176941,1.1964722,-0.86186504,0
0.39337158,1.2467499,-0.13522625,0
0.06295776,0.7727051,0.5088167,0
-0.07350159,1.0695801,0.1736269,0
-0.2027893,0.882843,0.5818453,0
-0.34284973,0.70925903,-0.05142498,0
-0.11300659,0.8229828,-0.45125103,0
0.007904053,0.9702301,0.22750568,0
0.14915466,0.927124,0.7913332,0
0.46279907,1.313797,0.05631733,0
0.61242676,1.2299957,-0.016711235,0
0.6926422,0.78826904,-0.040652275,0
0.8338928,0.7966461,-0.0035429,0
0.696228,1.045639,-0.078951836,0
0.39337158,1.2479553,-0.3973875,0
0.19824219,0.8265686,-0.19027996,0
0.22457886,0.76911926,-0.12564373,0
0.30717468,1.4035797,0.107785225,0
0.14915466,1.0157166,0.9649172,0
0.24372864,0.9642334,-0.47519207,0
0.14317322,1.5723724,-1.1862822,0
-0.28060913,0.96902466,0.28017902,0
-0.22554016,0.35012817,0.14849567,0
0.30836487,1.1521912,-0.20823956,0
0.49032593,0.85050964,0.88709736,0
0.593277,0.353714,0.31968403,0
0.67349243,0.9522705,-0.7553129,0
0.3179474,1.3580933,0.01800251,0
-0.07948303,0.81100464,0.30770588,0
-0.07350159,1.2180176,0.2418642,0
0.08570862,1.274292,0.93737507,0
0.19703674,1.1174622,-0.3794279,0
0.34188843,1.1054993,-0.9935484,0
0.39814758,0.7751007,-0.48596478,0
0.43885803,0.86128235,0.069485664,0
0.42089844,0.58236694,1.2773561,0
0.6974335,0.6661682,0.5447359,0
0.8195343,1.368866,-1.0522032,0
0.6531372,1.4347076,-0.82594585,0
0.34786987,1.1856995,-0.8594694,0
0.11923218,1.4670258,-0.24895,0
-0.08068848,0.9091797,1.2402468,0
0.11444092,0.33216858,0.62733173,0
0.4185028,0.44110107,-0.16156292,0
0.35386658,0.36209106,0.44297504,0
0.19943237,0.37765503,0.1736269,0
0.16711426,1.140213,-0.25851727,0
-0.08427429,1.0013428,1.0558901,0
-0.11061096,0.6482086,0.7254915,0
0.19345093,1.1904907,-0.2202177,0
-0.129776,1.1904907,0.12574482,0
-0.6181793,0.85769653,-0.24176311,0
-0.64572144,1.3114014,-0.16514874,0
-0.5176239,1.6884918,0.7039461,0
-0.14294434,1.8010101,0.023999214,0
0.48913574,1.9542389,-0.82594585,0
0.8267212,1.9255066,-0.43449688,0
1.0206451,1.2754822,0.1736269,0
1.1451416,1.4490662,-0.25851727,0
1.027832,1.4861755,-0.5721617,0
0.8662262,1.3820343,-1.4412565,0
1.0326233,1.2395782,-1.3837919,0
1.4276581,1.6250458,-0.9660063,0
1.2492981,1.571167,-0.05861187,0
0.8733978,0.59313965,0.33285236,0
0.7596741,0.59672546,-0.62004375,0
0.32632446,0.7367859,0.30770588,0
-0.24349976,0.42315674,0.34481525,0
-0.5559387,0.8660736,-0.20106792,0
-0.7809906,1.0707855,0.8392153,0
-1.1437073,0.8660736,1.320447,0
-1.2167358,1.2168274,0.7805605,0
-1.3113098,1.4119568,0.64768696,0
-1.5698853,1.3832245,-0.081347466,0
-1.7171173,1.4263153,-0.5135069,0
-1.7255096,1.6813049,-0.095721245,0
-1.7961273,1.5759583,0.59859943,0
-1.0922394,1.2599182,0.44897175,0
-0.40270996,1.4179382,-0.49196148,0
0.09289551,1.6441956,-0.67392254,0
0.201828,1.3054199,-0.010714531,0
0.6710968,0.7176361,0.53875446,0
0.9105072,0.89720154,0.02039814,0
0.5705414,1.0911255,-0.37463665,0
0.38858032,0.72242737,-0.5254698,0
0.45681763,0.630249,-0.9073515,0
0.42089844,1.5639801,-0.4775877,0
0.14556885,1.085144,1.0810366,0
0.13240051,0.6410217,0.20475483,0
0.42208862,1.2958374,-0.7421446,0
0.69862366,1.4179382,0.14130878,0
0.8626251,0.9845886,-0.2034483,0
1.1990204,1.5232849,-1.2545042,0
1.206192,1.887207,0.088635445,0
0.73454285,0.685318,0.9780855,0
0.7046051,0.47702026,-0.54822063,0
0.17070007,1.0252991,-0.02269268,0
-0.46495056,0.16577148,0.9110384,0
-0.52601624,0.35610962,-0.19627666,0
-0.25187683,1.2156372,0.59022236,0
-0.4565735,1.0408478,1.4401674,0
-0.5463562,1.0229034,-0.081347466,0
-0.3691864,1.4382935,-0.07776165,0
-0.6529083,1.1605682,0.8164797,0
-0.5667114,1.0073395,0.632123,0
-0.044769287,1.4598389,0.064694405,0
0.09648132,1.3353424,-0.2776823,0
0.30358887,1.0671844,-0.9719877,0
0.3789978,1.452652,-0.3076048,0
0.2772522,1.4502563,1.3180666,0
0.36582947,0.93670654,1.0032167,0
0.7309418,1.195282,-0.59968853,0
0.9751587,1.2778778,-1.2628965,0
0.68066406,1.2946472,-1.4256926,0
0.21858215,1.3796387,-0.7804594,0
-0.20518494,1.2252045,0.34122944,0
-0.40390015,0.8349457,0.5447359,0
-0.2710266,0.83135986,-0.0657835,0
-0.12138367,1.2240143,0.083844185,0
-0.32489014,0.99775696,0.31249714,0
-0.78219604,1.0181122,-0.30639935,0
-1.2825775,1.5783539,0.069485664,0
-1.8164825,1.0588074,0.6345186,0
-1.8883057,0.98579407,-0.3866148,0
-1.6345215,1.8058014,-0.2274046,1
-1.4190521,1.4646301,0.73507404,1
-0.8959198,1.337738,-1.2545042,1
-0.65649414,1.6417999,-1.4232969,1
-0.9785156,1.6142731,0.22630024,1
-0.91986084,1.3904114,0.26940632,1
-0.4781189,1.6370087,-0.31239605,1
-0.19322205,1.6382141,-0.21184063,1
0.0713501,1.3808289,-1.0234709,1
0.24491882,1.4275208,-1.4592161,1
0.036621094,1.5388489,0.098217964,1
-0.15849304,0.96902466,1.047513,1
0.022262573,0.9091797,0.44657612,1
0.14556885,1.4203339,0.32685566,1
-0.1812439,1.1880951,-0.3686552,1
-0.74269104,1.2635193,-0.8067961,1
-1.29216,1.1617584,0.37354755,1
-1.6261444,1.3257599,0.22630024,1
-1.7566223,1.4011841,0.124554634,1
-1.4190521,1.4418793,0.28376484,1
-1.0682983,1.6166534,-0.17950726,1
-1.2777863,1.8907928,-0.15317059,1
-1.8272552,1.7770691,0.40586567,1
-1.996048,1.6561584,-0.031069756,1
-1.7913513,1.9949493,-0.5721617,1
-1.4106598,2.555191,-0.9396696,1
-1.2191315,2.3875885,-0.5278654,1
-0.9006958,2.1230316,-0.27647686,1
-0.23750305,2.780243,0.067090034,1
0.21020508,2.9083252,0.43220234,1
0.19464111,2.3145752,-0.41774273,1
0.012680054,1.9961395,-0.33154583,1
-0.41348267,2.029663,0.4836855,1
-0.6876221,1.6034851,0.61176777,1
-0.58825684,1.6513824,0.082654,1
-0.25785828,2.1158447,-0.05621624,1
-0.010055542,2.491745,-0.0023374557,1
-0.022033691,2.3684387,0.23946857,1
0.050994873,2.5695496,-0.02269268,1
0.18267822,2.7910156,-0.22261333,1
0.34069824,2.5049133,-0.7205992,1
0.28442383,2.4294891,-1.2066221,1
0.33709717,2.507309,-0.58772564,1
0.50109863,2.342102,0.41305256,1
0.6854553,2.2116241,-0.22859478,1
0.43048096,2.2798462,-0.57695293,1
0.05458069,1.9458618,-0.26689434,1
-0.22433472,1.9901581,-1.0198851,1
-0.521225,2.208023,-0.6511717,1
-0.7726135,2.2116241,0.093426704,1
-0.81451416,2.0871277,0.02998066,1
-0.8312683,2.3313293,0.10659504,1
-0.80851746,2.3277435,0.31489277,1
-0.6145935,2.333725,-0.21542645,1
-0.4338379,2.152954,-0.60927105,1
-0.33447266,1.9338989,-0.36625957,1
0.0713501,1.6034851,0.0060396194,1
0.7046051,1.5532074,-0.064593315,1
0.9176941,1.7232056,0.18800068,1
0.885376,1.1689453,0.62972736,1
0.5094757,1.4215393,0.038357735,1
-0.45896912,1.7303772,0.7829561,1
-1.0072479,1.2695007,0.83204365,1
-1.2215271,1.6094818,-0.03467083,1
-1.4609375,1.8596649,0.040753365,1
-1.4812927,2.3229523,-1.0330534,1
-1.668045,2.7120056,-1.1240263,1
-1.9553528,2.3947754,-0.27289104,1
-1.7422638,2.2726746,-0.2274046,1
-1.0826569,2.4342804,-0.21423626,1
-0.7271271,2.6844788,-0.52188396,1
-0.37876892,2.026062,-0.25732708,1
0.12879944,1.6082764,-0.13881207,1
0.38139343,1.6166534,-0.081347466,1
0.41610718,1.3712616,0.03956318,1
0.577713,0.84931946,-0.24055767,1
0.7884064,0.8624878,0.10899067,1
0.751297,0.98698425,0.46452045,1
0.44483948,1.6022949,-0.098116875,1
-0.022033691,1.6394043,-0.105288506,1
-0.5463562,1.511322,-0.6260252,1
-0.7714081,1.6058807,-0.5829344,1
-1.118576,1.4861755,0.15328693,1
-1.158081,1.155777,0.081448555,1
-0.82528687,1.5603943,-0.3650694,1
-0.67445374,1.9219208,0.43101215,1
-0.9078827,1.9494476,-0.209445,1
-1.1760406,1.9542389,-0.8283415,1
-1.4393921,1.4191437,0.5710726,1
-1.2514496,0.6757355,1.0654726,1
-0.46855164,0.83973694,0.39390278,1
0.5262451,1.4023743,-0.24176311,1
0.7836151,1.4263153,-0.50152874,1
0.5837097,1.4311066,0.019207954,1
0.55018616,1.5029297,1.1037722,1
0.5525818,1.5184937,0.671628,1
0.538208,1.2299957,-0.00593853,1
0.4879303,0.9750061,0.03956318,1
0.18386841,1.368866,-0.095721245,1
-0.26383972,1.674118,0.14849567,1
-0.69241333,1.1198578,0.7626009,1
-0.857605,0.74876404,0.24546528,1
-0.17765808,1.2467499,-1.07973,1
0.34428406,2.239151,-1.5992765,1
0.12521362,1.8022156,-0.79602337,1
0.32632446,1.4239197,-0.6260252,1
0.6615143,2.168518,-0.19986248,1
0.5166626,1.839325,0.458539,1
0.10246277,1.3808289,-1.1036711,1
-0.3584137,1.6058807,-0.63800335,1
-1.0407562,0.942688,1.0810366,1
-1.1676483,1.1545715,-0.9360838,1
-1.4202423,1.7351685,-0.7948179,1
-1.5435486,0.9714203,0.8559847,1
-1.3819427,1.4263153,-0.11845684,1
-1.197586,1.8752289,0.071881294,1
-1.0204163,1.6537628,-0.031069756,1
-1.1197662,1.037262,-0.112475395,1
-0.9904785,0.56440735,1.1337099,1
-0.3224945,0.5835571,1.5155764,1
0.88656616,0.92951965,-0.04423809,1
1.0625458,1.0707855,-0.31239605,1
0.72854614,1.397583,0.60937214,1
0.4292755,1.5089264,1.0989962,1
-0.025619507,1.006134,0.48008442,1
-0.24468994,0.89001465,-0.5817442,1
-0.4086914,0.92832947,-1.1886625,1
-0.7342987,0.9211426,-0.7325773,1
-1.1233673,0.60749817,0.038357735,1
-0.9150696,1.0360718,-0.33513165,1
-0.98928833,1.5903168,-0.27647686,1
-1.2933502,1.116272,-0.6655302,1
-1.3292694,1.3269653,-1.4939299,1
-1.6165619,1.1725311,0.44178486,1
-1.9385834,0.4614563,0.7003603,1
-1.0275879,1.3197784,-0.837924,1
-0.40270996,1.6717224,-0.074160576,1
-0.49368286,1.0707855,-0.071780205,1
-0.56192017,1.2419739,-0.105288506,1
-0.6325531,1.7196045,0.8236513,1
-0.5631256,1.7399597,0.18800068,1
-0.58825684,1.7639008,-0.14839458,1
-0.15969849,2.1661224,0.22869587,1
0.2987976,2.6689148,1.0606813,1
0.16590881,1.6322174,1.2749605,1
0.46279907,1.6429901,-0.33394146,1
0.27246094,1.823761,-0.3076048,1
-0.11898804,1.6968689,-0.58533,1
-0.36320496,1.2970276,-0.3111906,1
0.25808716,1.0193024,-0.27528667,1
0.9751587,1.4203339,-1.0809355,1
1.0541687,1.0384674,0.02279377,1
0.7824249,0.3022461,0.43459797,1
0.68666077,0.8014374,-0.7002592,1
0.040222168,1.5831451,-0.73974895,1
-0.8564148,1.2288055,-0.73497295,1
-1.1844177,1.0264893,-1.2329588,1
-1.0994263,1.0923309,0.47170734,1
-0.842041,0.9127655,1.2965059,1
-0.6612854,0.78108215,-0.20465374,1
-0.5667114,1.3209686,-0.96242046,1
-1.0635071,1.595108,0.24546528,1
-1.565094,1.3221741,0.071881294,1
-1.5064392,1.6848907,-0.25253582,1
-1.2502594,1.7722778,0.15447712,1
-0.763031,2.0464172,-0.6068754,1
-0.33447266,2.4378662,-0.57695293,1
-0.37876892,2.6820831,0.3460207,1
-0.7091675,1.7028503,1.2462282,1
-0.63853455,1.6154633,0.2023592,1
-0.5571289,1.9302979,-0.9073515,1
-0.9330292,1.8740387,-1.4149199,1
-1.1532898,1.468216,-0.7337675,1
-1.0587158,1.2910461,0.94816303,1
-0.5427704,1.3329468,1.6233187,1
0.26527405,1.500534,0.56149006,1
0.672287,1.9434662,-1.4544249,1
0.13119507,1.7806702,-1.1683226,1
-0.63134766,1.0624084,-0.19267559,1
-0.9569702,0.48539734,0.3112917,1
-0.6026306,0.55244446,-0.10170269,1
-0.19441223,1.3892059,-1.110858,1
-0.40629578,1.3952026,-1.1383848,1
-0.88513184,1.4191437,-0.8283415,1
-0.9509735,1.9350891,-1.2437315,1
-1.1030121,2.4689941,0.23827839,1
-1.1999817,1.2180176,2.5187502,1
-0.5236206,0.24717712,1.4988222,1
0.62680054,1.2288055,1.1241274,1
0.35505676,1.760315,0.6417055,1
-0.76542664,1.2335815,0.062298775,1
-1.0491486,1.1019135,0.49564838,1
-0.50205994,1.8656616,0.6045809,1
0.13119507,1.5998993,0.59859943,1
0.8159485,1.4382935,-0.9097471,1
1.5246277,2.3468933,-1.5968809,1
0.8889618,2.0284576,1.087018,1
-0.19082642,0.62187195,1.6233187,1
-0.3404541,0.41955566,0.57226276,1
-0.15132141,0.51771545,0.5303621,1
-0.4948883,0.4434967,-0.466815,1
-1.431015,0.55363464,-0.22978497,1
-1.6895905,0.97979736,-0.1340208,1
-1.5710754,1.7507324,-0.9755888,1
-1.7266998,1.7591095,-0.69665813,1
-1.604599,1.511322,-0.9719877,1
-1.0072479,2.0356445,-1.3442869,1
-0.88275146,2.0356445,-0.18190289,1
-0.6648712,1.847702,-0.5781431,1
-0.84085083,2.2247925,-0.94446087,1
-1.217926,1.823761,0.36277485,1
-1.5794525,1.2012634,0.08025837,1
-1.7805634,1.2730865,-0.6691313,1
-1.5974121,1.2994232,-0.4883604,1
-1.9110565,0.86009216,-0.52307415,1
-1.8033142,0.8720703,-0.32675457,1
-1.5136108,1.2874603,0.72788715,1
-0.94140625,1.5807495,0.8200655,1
-0.63853455,1.6956635,-0.12564373,1
-0.33926392,1.981781,-1.328723,1
-0.6469116,2.285843,-1.0881071,1
-1.3580017,1.3987885,0.07307148,1
-1.5686798,1.0875397,0.49924946,1
-0.85401917,1.4586487,0.22869587,1
-0.6145935,1.6322174,-0.9145384,1
-0.6301575,1.171341,-1.3802061,1
-0.6612854,1.2395782,-0.87382793,1
-0.83247375,1.4813843,0.84281635,1
-0.71875,1.4287109,2.0937777,1
-0.029205322,1.4418793,0.89428425,1
0.5442047,2.4235077,-0.7086363,1
-0.03878784,2.5767365,0.15926838,1
-0.8288727,1.8608704,0.5710726,1
-1.1796265,1.5592041,0.48847675,1
-0.644516,1.595108,0.72430134,1
0.3275299,1.5364532,-0.51111126,1
0.89375305,1.8117828,-2.2995787,1
0.5130768,1.9590302,-0.98038006,1
-0.2901764,1.9003754,1.0966005,1
-0.6337433,1.2611237,1.7442293,1
-0.40031433,1.3101959,0.62614155,1
-0.1632843,1.6250458,-0.5362425,1
-0.69958496,1.5520172,-1.7213774,1
-1.644104,0.56321716,-0.9971342,1
-2.3096924,0.31900024,0.06110859,1
-2.0618896,0.6266632,0.7075319,1
-1.1245575,1.1497955,-0.5601835,1
-0.7450714,1.5747681,-1.2389402,1
-1.1137848,1.5915222,-0.028674126,1
-1.4178467,1.8165741,0.9182253,1
-1.4908752,1.665741,0.92660236,1
-1.6428986,1.0504303,0.41305256,1
-1.165268,0.87086487,-0.68947124,1
-0.7690277,1.2958374,-0.92171,1
-1.1784363,1.4239197,-0.4560423,1
-1.5243988,1.6011047,0.03716755,1
-1.5172119,1.8453064,0.7254915,1
-1.1293488,2.0368347,-0.014315605,1
-1.0742798,2.0835266,-0.76370525,1
-1.5291748,1.6860962,-0.18789959,1
-1.5207977,1.4251251,-0.22500896,1
-1.494461,1.7172089,-0.3698454,1
-1.5279846,1.2443542,0.069485664,1
-1.3196869,1.3892059,-0.94206524,1
-1.3065186,1.6513824,-0.39020061,1
-1.3172913,1.3185883,0.11617756,1
-1.21315,1.4454803,-0.5817442,1
-0.90309143,1.6154633,-0.48956585,1
-0.6983948,1.4825897,-0.086138725,1
-0.37397766,1.3245697,-0.36267376,1
0.011489868,1.4059753,-0.27528667,1
0.3095703,1.7040405,-0.91333294,1
0.13479614,1.6525726,-0.33752728,1
-0.07710266,1.4107513,0.3292513,1
0.05218506,1.3952026,0.081448555,1
0.24971008,1.6214447,-0.6715269,1
0.07972717,1.3808289,-0.3698454,1
-0.055541992,1.2886505,-0.41414165,1
-0.2027893,1.6202545,-0.071780205,0
-0.44221497,1.5568085,0.6225405,0
-0.5834656,1.6537628,0.18200397,0
-0.6876221,1.7339783,-0.35548687,0
-0.6134033,1.8309479,-1.0522032,0
-0.84085083,1.4789886,-0.5278654,0
-1.0275879,1.3520966,0.37713337,0
-1.0587158,1.2958374,0.58063984,0
-0.94499207,1.0935211,0.28257465,0
-0.72592163,1.0588074,0.0036439896,0
-0.49847412,1.219223,0.15806293,0
-0.42425537,1.0935211,0.39150715,0
-0.2997589,1.3209686,-0.18310833,0
-0.37516785,1.5244904,0.1736269,0
-0.5439606,1.006134,1.197156,0
-0.41227722,1.0037384,0.16405964,0
-0.35601807,1.274292,-0.5386381,0
-0.55114746,1.0264893,-0.35309124,0
-0.6181793,1.0384674,-0.21303082,0
-0.6947937,1.3604736,0.7147188,0
-0.70677185,1.516098,0.5088167,0
-0.7498627,1.4466705,-0.703845,0
-0.6433258,1.5735626,-1.1180449,0
-0.6433258,1.5089264,-0.87382793,0
-0.76423645,1.3114014,-0.8307371,0
-0.7558594,1.368866,-0.3219633,0
-0.54156494,1.2479553,0.19039631,0
-0.21595764,1.468216,0.14849567,0
-0.051956177,1.6453857,0.11855793,0
-0.07110596,1.3018188,-0.16156292,0
0.036621094,1.0983124,-0.7948179,0
0.07254028,1.2910461,-0.46441936,0
-0.0435791,1.2096405,0.3675661,0
0.16352844,0.6637726,0.5710726,0
0.4759674,1.1378174,-0.17473125,0
0.5058899,1.5053253,0.17483234,0
0.40293884,1.4335022,0.016812325,0
0.33590698,1.7267914,-0.2896452,0
0.26527405,2.0284576,-0.015505791,0
0.09408569,2.0679626,0.16166401,0
0.17190552,1.9614258,-0.22380352,0
0.26168823,2.1397858,-0.58772564,0
0.13119507,2.120636,-0.21184063,0
0.22576904,2.0045166,0.09223652,0
0.24971008,2.168518,-0.0011472702,0
0.13240051,2.0799408,0.18200397,0
0.10845947,1.9386749,0.14729023,0
0.18507385,1.9937439,-0.30401897,0
-0.060333252,1.8524933,-0.17352581,0
-0.36320496,1.5280762,0.14370441,0
-0.5248108,1.4047699,0.019207954,0
-0.5355835,1.4347076,0.26580524,0
-0.5463562,1.171341,0.5064211,0
-0.30215454,1.1126862,0.26580524,0
-0.12617493,1.4143524,-0.11128521,0
-0.11300659,1.4335022,-0.1412077,0
-0.066329956,1.2180176,-0.04663372,0
0.09169006,1.3078003,5.8174133E-5,0
0.22576904,1.4741974,0.2598238,0
0.26766968,1.3999786,-0.09930706,0
0.19584656,1.5244904,-0.73855877,0
-0.010055542,1.6190491,-0.58772564,0
-0.19799805,1.6118774,0.0251894,0
-0.38116455,1.6669312,0.55790424,0
-0.4481964,1.8345337,0.335248,0
-0.5379791,1.9147339,-0.47279644,0
-0.6337433,1.7986145,-0.6870909,0
-0.7618408,1.4430847,-0.40336895,0
-0.65649414,1.3939972,0.033566475,0
-0.7007904,1.5699768,0.31249714,0
-0.62057495,1.437088,0.112576485,0
-0.4888916,1.4179382,-0.3698454,0
-0.49009705,1.2024689,-0.5362425,0
-0.5966339,0.99775696,0.09223652,0
-0.5092468,0.74876404,0.2885561,0
-0.21955872,1.1066895,0.012021065,0
-0.11300659,1.1222534,0.098217964,0
-0.06272888,0.9391022,-0.17352581,0
-0.0723114,1.3054199,-0.4201231,0
-0.3691864,1.2168274,0.24784565,0
-0.74746704,1.0288849,0.33643818,0
-0.9665375,1.1234589,0.24665546,0
-0.8899231,1.1617584,0.117367744,0
-0.9797058,1.2096405,-0.6930723,0
-1.3101044,1.0444489,-0.64996624,0
-1.4884796,0.89720154,-0.3973875,0
-1.5243988,1.2072449,0.114972115,0
-1.5830536,0.9522705,1.1193361,0
-1.4956665,0.724823,0.43101215,0
-1.3101044,0.91755676,-0.25493145,0
-1.3819427,0.5380707,0.050335884,0
-1.510025,0.26034546,0.16166401,0
-1.2634277,0.4602661,0.3962984,0
-1.0730896,0.5871582,0.5950136,0
-1.0886536,0.31541443,0.26461506,0
-1.0096436,0.24238586,-0.21063519,0
-0.71754456,0.47103882,0.2490511,0
-0.7450714,0.4650421,0.6824007,0
-0.86958313,0.511734,0.2203188,0
-0.73550415,0.62187195,-0.35309124,0
-0.565506,0.47103882,-0.5542021,0
-0.61938477,0.17175293,0.023999214,0
-0.50445557,0.13224792,0.39869404,0
-0.3368683,0.5883484,0.1628542,0
-0.30215454,0.36808777,0.2526369,0
-0.22673035,0.10232544,-0.1412077,0
-0.059143066,0.38005066,-0.46322918,0
-0.016036987,0.52490234,-0.13043499,0
-0.13815308,0.1585846,-0.16035748,0
-0.0064697266,0.31541443,-0.6834898,0
0.19943237,0.6637726,-0.39020061,0
0.07254028,0.44470215,0.05631733,0
-0.025619507,0.1645813,0.067090034,0
0.15394592,0.46983337,-0.23697186,0
-0.13336182,0.60510254,0.103009224,0
-0.46495056,0.017333984,0.3687563,0
-0.4481964,0.14183044,-0.14360332,0
-0.5559387,0.60272217,0.3101015,0
-0.8887329,0.06642151,0.75661945,0
-0.9330292,0.18373108,-0.074160576,0
-0.86958313,0.6673584,0.0012483597,0
-0.91625977,0.4039917,0.38073444,0
-0.8300781,0.43511963,0.009625435,0
-0.5631256,0.61468506,-0.055010796,0
-0.31411743,0.9738159,-0.15796185,0
-0.31292725,0.5955353,0.2634096,0
-0.20399475,0.30343628,0.3280611,0
-0.12738037,0.6709442,0.04194355,0
-0.18482971,0.52371216,0.26221943,0
-0.16088867,0.2878723,-0.18310833,0
-0.06991577,0.65538025,-0.59012127,0
-0.04597473,0.6984863,0.2526369,0
-0.13575745,0.3992157,0.5890322,0
0.007904053,0.4255371,0.379529,0
0.09289551,0.82177734,0.007229805,0
-0.008865356,0.4219513,0.15208149,0
0.10006714,0.05204773,-0.02269268,0
0.22816467,0.18014526,0.105389595,0
0.19584656,0.2040863,0.48128986,0
0.16590881,0.21125793,0.1915865,0
0.32992554,0.48181152,-0.2321806,0
0.30836487,0.6194763,-0.08494854,0
0.042617798,0.20648193,0.28376484,0
-0.08427429,0.093948364,0.19398212,0
-0.07350159,0.19450378,0.1688509,0
-0.12498474,0.16218567,0.15806293,0
-0.19441223,0.19569397,-0.07776165,0
-0.2099762,0.34654236,-0.02748394,0
-0.28659058,0.3525238,-0.059802055,0
-0.26504517,0.22203064,-0.045443535,0
-0.21835327,0.11190796,0.028775215,0
-0.09265137,0.053253174,0.043148994,0
-0.05316162,-0.049697876,0.35319233,0
0.05458069,-0.2244873,0.42263508,0
0.14077759,-0.023361206,-0.19267559,0
-0.051956177,0.18373108,-0.30401897,0
-0.2207489,-0.076034546,0.03956318,0
-0.28419495,-0.02217102,0.09461689,0
-0.26504517,0.14541626,0.21194172,0
-0.35003662,0.1585846,0.110180855,0
-0.48051453,-0.16581726,0.004834175,0
-0.6014252,0.16218567,-0.25732708,0
-0.84443665,0.13703918,0.3507967,0
-1.1161804,-0.19694519,0.42263508,0
-1.110199,-0.013793945,-0.04663372,0
-1.0335846,0.22802734,0.30412006,0
-0.9497833,-0.085617065,0.46214008,0
-0.77500916,-0.04611206,-0.17592144,0
-0.5942383,0.21485901,-0.2992277,0
-0.5942383,-0.102371216,0.1448946,0
-0.40270996,-0.27236938,0.2777834,0
-0.19920349,0.06163025,0.45734882,0
-0.13694763,-0.16581726,0.42142963,0
-0.1920166,-0.107162476,-0.48237896,0
-0.40150452,-0.12512207,-0.25493145,0
-0.66845703,-0.1789856,0.22390461,0
-0.857605,-0.2244873,0.47530842,0
-0.87197876,-0.13470459,0.3208742,0
-0.7989502,-0.066467285,-0.2429533,0
-0.83724976,-0.03175354,-0.3794279,0
-0.79415894,-0.13110352,0.20596027,0
-0.67085266,0.0209198,0.41065693,0
-0.51882935,-0.0066070557,0.4405794,0
-0.33207703,-0.037734985,0.110180855,0
-0.07110596,0.05204773,-0.2704954,0
0.016281128,0.077194214,-0.14479351,0
-0.016036987,0.117889404,-0.02029705,0
0.06535339,0.0209198,0.22630024,0
0.17190552,0.110702515,0.22869587,0
0.21020508,0.05923462,0.40467548,0
0.15513611,0.038879395,0.3567934,0
0.046203613,0.024520874,0.22511005,0
-0.116607666,0.21125793,0.16166401,0
-0.23272705,0.21125793,0.3507967,0
-0.15132141,0.4315338,0.086239815,0
-0.12138367,0.84213257,-0.1412077,0
-0.07589722,0.96902466,0.14370441,0
-0.017242432,1.0169067,0.03956318,0
0.06655884,1.1928864,-0.083743095,0
0.022262573,1.1533813,-0.026278496,0
-0.04118347,0.966629,-0.1914854,0
-0.08068848,0.9917755,-0.23099041,0
-0.22793579,0.94747925,0.059903145,0
-0.2782135,1.0288849,0.021603584,0
-0.22673035,1.1593628,-0.19267559,0
-0.25427246,1.1893005,-0.29683208,0
-0.2614441,1.100708,-0.088534355,0
-0.23631287,0.9678345,0.12095356,0
-0.1812439,1.1150818,-0.052615166,0
-0.14653015,1.0384674,0.2203188,0
-0.0435791,0.9331207,0.22750568,0
0.003112793,1.0001526,0.21792316,0
-0.026824951,1.0312805,0.26461506,0
-0.060333252,1.0312805,0.0012483597,0
-0.04118347,0.98817444,-0.23338604,0
-0.042373657,1.076767,-0.29204082,0
0.018676758,1.0229034,0.0251894,0
0.07493591,1.085144,-0.09691143,0
0.13719177,1.0564117,-0.04663372,0
0.17190552,1.1330261,-0.102892876,0
0.11444092,1.0779572,-0.06817913,0
0.16590881,0.91516113,0.021603584,0
0.1730957,0.803833,0.16764545,0
0.21141052,0.87086487,0.2310915,0
0.26885986,0.82896423,0.295743,0
0.13119507,1.0755768,-0.12683392,0
-0.0016784668,1.0635986,-0.00593853,0
-0.06272888,0.9558563,0.055111885,0
-0.0064697266,1.0240936,-0.26689434,0
0.060577393,1.085144,-0.043047905,0
0.0821228,0.843338,0.03956318,0
0.15753174,0.90078735,-0.122057915,0
0.08570862,0.9606476,0.34721088,0
-0.033996582,0.8157959,0.37594318,0
-0.08068848,0.91516113,-0.11128521,0
-0.1812439,0.92593384,-0.043047905,0
-0.1525116,0.7906647,-0.093325615,0
0.015075684,0.8948059,-0.18310833,0
0.18507385,1.0300751,-0.086138725,0
0.30119324,1.0492401,-0.17352581,0
0.3275299,1.0193024,-0.119662285,0
0.32632446,1.0013428,0.069485664,0
0.22457886,0.91874695,0.1915865,0
0.13719177,0.7655182,0.12695026,0
0.07254028,0.7751007,-0.08255291,0
0.030639648,0.77030945,0.02039814,0
0.029449463,0.80023193,0.30291462,0
0.09768677,0.824173,0.46812153,0
0.20063782,0.96543884,0.11378193,0
0.19824219,1.0887451,-0.20465374,0
0.24014282,1.061203,-0.14599895,0
0.31196594,0.98339844,0.059903145,0
0.3861847,1.0719757,0.10419941,0
0.39216614,1.0528259,0.02039814,0
0.27485657,0.9211426,-0.21782207,0
0.15753174,1.0875397,-0.30281353,0
0.050994873,1.0707855,0.2813692,0
-0.025619507,1.0887451,0.31968403,0
0.013885498,1.1701355,-0.0071287155,0
-0.022033691,1.1593628,-0.081347466,0
-0.10821533,1.0647888,-0.21303082,0
-0.18363953,1.0336761,0.007229805,0
-0.21237183,1.0420532,0.26580524,0
-0.174057,1.0540161,0.06589985,0
-0.16088867,1.1773224,-0.17352581,0
-0.1632843,1.1701355,-0.16394329,0
-0.24588013,1.1330261,-0.076556206,0
-0.3284912,1.1270447,0.20475483,0
-0.40390015,1.1258545,0.07067585,0
-0.4194641,1.1042938,-0.24055767,0
-0.48051453,1.1378174,-0.27647686,0
-0.47213745,1.1629639,-0.10409832,0
-0.39672852,1.4347076,-0.16514874,0
-0.21716309,1.8165741,-0.074160576,0
-0.14892578,1.6429901,0.16166401,0
-0.033996582,1.3185883,-0.27289104,0
-0.07829285,1.5819397,-0.48717022,0
-0.2722168,1.2922516,0.30412006,0
-0.26863098,1.3221741,-0.24774456,0
-0.13934326,1.847702,-0.32556438,0
-0.21595764,1.8919983,0.20596027,0
-0.33328247,1.4119568,-0.15317059,0
-0.32489014,1.689682,-0.11366558,0
-0.347641,1.9638214,0.19279194,0
-0.3691864,1.7806702,0.009625435,0
-0.20039368,1.7662964,-0.16156292,0
-0.08427429,1.9698029,0.079068184,0
0.027053833,2.1194458,-0.078951836,0
0.0761261,2.2331696,-0.37463665,0
0.09169006,2.175705,-0.209445,0
0.11204529,2.0547943,-0.17352581,0
0.1335907,2.1026764,-0.08255291,0
0.017471313,2.2092285,-0.14239788,0
0.0019073486,1.8201599,0.300519,0
0.009094238,1.926712,-0.22619915,0
0.06535339,1.9650116,-0.3111906,0
-0.1632843,2.0942993,-0.08494854,0
-0.19680786,1.3808289,0.21792316,0
0.07733154,1.9015656,-0.2381773,0
-0.0064697266,1.981781,0.2418642,0
0.047409058,1.5651855,-0.25612164,0
-0.04118347,1.8716431,-0.7373686,0
-0.14413452,1.5388489,0.29095173,0
-0.25904846,1.7208099,-0.18669415,0
-0.4386139,1.7279968,0.045544624,0
-0.35243225,1.4981537,-0.062197685,0
-0.35601807,1.887207,-0.6715269,0
-0.32609558,1.8883972,0.24306965,0
-0.44940186,2.0200806,0.1341219,0
-0.4158783,1.9530487,-0.15916729,0
-0.3943329,2.3456879,-0.18190289,0
-0.44700623,2.065567,0.2203188,0
-0.1632843,2.1469727,-0.19027996,0
-0.1405487,2.2523193,-0.11845684,0
-0.020828247,2.1409912,-0.064593315,0
-0.07110596,2.1326141,-0.51111126,0
0.07014465,2.0404358,-0.3758421,0
-0.06871033,2.1948547,-0.39618206,0
0.058181763,1.7267914,0.13532734,0
-0.049560547,1.9745941,-0.2501402,0
-0.054351807,1.8022156,0.22150898,0
-0.23272705,1.847702,-0.2274046,0
-0.27700806,1.5484314,-0.29443645,0
-0.3799591,1.8656616,-0.41774273,0
-0.36080933,1.5663757,0.30891132,0
-0.2099762,1.8105927,0.038357735,0
-0.059143066,1.8321381,0.013226509,0
-0.08666992,2.1014862,-0.1986723,0
-0.21116638,1.8907928,-0.1807127,0
-0.29377747,2.1721191,-0.3111906,0
-0.40629578,2.199646,-0.13283062,0
-0.35482788,2.2176056,-0.1232481,0
-0.25785828,2.2678833,-0.36386395,0
-0.1920166,2.2906342,-0.2034483,0
-0.23989868,2.3444977,-0.39978313,0
-0.28419495,2.2690735,-0.14599895,0
-0.2889862,2.1816864,-0.0610075,0
-0.2722168,2.2283783,-0.4261198,0
-0.3572235,2.3073883,-0.4656248,0
-0.32728577,2.1194458,-0.36625957,0
-0.3009491,2.2116241,-0.42132854,0
-0.35601807,2.2654877,0.20834064,0
-0.40150452,2.2176056,0.4657259,0
-0.31651306,2.1409912,0.38911152,0
-0.26504517,2.2894287,-0.071780205,0
-0.33805847,2.4235077,-0.35667706,0
-0.2997589,2.266693,-0.20584393,0
-0.20399475,2.2619019,-0.2501402,0
-0.08187866,2.4007568,0.055111885,0
0.1335907,2.3612518,0.03716755,0
0.24971008,2.4510345,-0.29802227,0
0.30119324,2.5216675,-0.53265667,0
0.18746948,2.5934906,-0.5422392,0
-0.005264282,2.4031525,-0.114871025,0
-0.060333252,2.3504791,0.12574482,0
-0.10462952,2.3840027,0.24306965,0
-0.047164917,2.270279,-0.0047330856,0
-0.051956177,2.3612518,-0.58533,0
-0.15609741,2.467804,-0.6834898,0
-0.13215637,2.266693,-0.4153471,0
-0.11540222,2.3624573,-0.21542645,0
0.025848389,2.2379608,0.3687563,0
0.2880249,2.3313293,-0.06338787,0
0.29400635,2.678482,-0.71820354,0
0.022262573,2.4402618,-0.3183775,0
-0.24349976,2.3528748,-0.16754436,0
-0.46376038,2.2978058,0.26101398,0
-0.4625702,2.3289337,0.28974628,0
-0.26623535,2.3636475,-0.13043499,0
0.003112793,2.3038025,-0.36027813,0
0.1156311,2.5061035,-0.52188396,0
0.050994873,2.3169708,0.12334919,0
0.011489868,2.285843,0.095822334,0
0.025848389,2.4187164,0.11617756,0
0.018676758,2.3875885,-0.066988945,0
-0.12138367,2.445053,-0.7660856,0
-0.21595764,2.3157654,-0.6918669,0
-0.35482788,2.3456879,-0.37463665,0
-0.30455017,2.3073883,0.20834064,0
-0.12857056,2.4426575,0.31608295,0
0.06416321,2.4163208,-0.23099041,0
0.16950989,2.3672485,-0.64158916,0
0.21260071,2.223587,-0.35548687,0
0.21141052,2.1697235,-0.01790142,0
0.11802673,2.2116241,-0.038256645,0
0.0019073486,2.2104187,-0.3303404,0
-0.036392212,2.3121796,-0.7218046,0
-0.13215637,2.3564606,-0.38901043,0
-0.33088684,2.2990112,0.01800251,0
-0.4673462,2.404358,0.01560688,0
-0.47932434,2.4103394,0.082654,0
-0.28060913,2.3792114,0.02998066,0
-0.035202026,2.3504791,-0.0370512,0
0.1802826,2.3875885,-0.11606121,0
0.23414612,2.3780212,-0.00833416,0
0.3430786,2.246338,0.2418642,0
0.40174866,2.3923798,0.074276924,0
0.3969574,2.4654083,-0.23338604,0
0.2425232,2.3229523,-0.55180645,0
0.025848389,2.2427368,-0.8091917,0
-0.19560242,2.3624573,-0.45006084,0
-0.49128723,2.1625366,0.14251423,0
-0.6074066,2.2403564,-0.33513165,0
-0.6540985,2.4318848,-0.5027342,0
-0.7702179,2.2295685,-0.25612164,0
-0.857605,2.167328,-0.38063335,0
-0.86479187,2.3061829,-0.16994,0
-0.8492279,2.3038025,-0.16633892,0
-0.70318604,2.2642975,-0.4548521,0
-0.58106995,2.3289337,-0.4596281,0
-0.45896912,2.3049927,-0.28006268,0
-0.4338379,2.302597,-0.22261333,0
-0.3284912,2.2954102,-0.22261333,0
-0.308136,2.2499237,-0.24055767,0
-0.3584137,2.2642975,-0.20106792,0
-0.41227722,2.096695,0.062298775,0
-0.3943329,2.151764,0.29453754,0
-0.37278748,2.1194458,0.18800068,0
-0.33926392,2.2499237,-0.22978497,0
-0.46136475,2.1984558,-0.3303404,0
-0.44221497,2.0009308,-0.11845684,0
-0.3572235,2.1649323,-0.059802055,0
-0.40629578,2.3373108,-0.26570415,0
-0.50086975,2.1026764,-0.17113018,0
-0.40390015,1.981781,-0.22859478,0
-0.4948883,2.0942993,0.069485664,0
-0.6936035,2.2211914,0.02998066,0
-0.83366394,2.0105133,-0.26809978,0
-0.8791504,1.9614258,-0.5817442,0
-0.89112854,1.9255066,-0.24655437,0
-0.8288727,2.002121,0.062298775,0
-0.6947937,2.112259,-0.209445,0
-0.58106995,2.0356445,-0.58053875,0
-0.6038208,2.163742,-0.59012127,0
-0.61698914,2.0667725,0.11617756,0
-0.5236206,2.0751495,0.2670107,0
-0.41706848,2.1062775,0.18200397,0
-0.26504517,2.0105133,0.03956318,0
-0.2099762,1.8309479,-0.17831707,0
-0.26863098,1.5927124,-0.014315605,0
-0.34165955,1.4191437,0.31968403,0
-0.33207703,1.210846,0.3855257,0
-0.3691864,1.2359772,0.002453804,0
-0.49967957,1.2228088,-0.16754436,0
-0.61579895,1.021698,-0.15556622,0
-0.66726685,0.98579407,-0.44526958,0
-0.7618408,1.1198578,-0.46322918,0
-0.7798004,0.9630432,-0.29204082,0
-0.5176239,1.0336761,-0.50752544,0
-0.32728577,1.3269653,-0.5841398,0
-0.29377747,1.3006287,-0.14000225,0
-0.3763733,1.0911255,0.019207954,0
-0.5355835,1.0468445,0.13532734,0
-0.57629395,1.2455597,0.038357735,0
-0.6624756,1.124649,-0.05142498,0
-0.5858612,1.0001526,-0.29443645,0
-0.41348267,1.179718,0.08744526,0
-0.27700806,1.1773224,0.35319233,0
-0.25427246,1.1545715,0.30412006,0
-0.25546265,1.2910461,-0.057406425,0
-0.30334473,1.3161926,-0.32435894,0
-0.54756165,1.1450043,0.117367744,0
-0.5858612,1.0528259,0.57825947,0
-0.46017456,1.195282,0.48847675,0
-0.387146,1.0911255,-0.026278496,0
-0.44100952,1.0671844,-0.33394146,0
-0.45059204,1.0731812,0.002453804,0
-0.49128723,1.2323914,0.44297504,0
-0.5068512,1.179718,0.6237459,0
-0.4625702,0.98579407,0.05871296,0
-0.46136475,1.2024689,-0.52307415,0
-0.62657166,1.1821136,-0.1232481,0
-0.70318604,1.1042938,0.14370441,0
-0.63734436,1.1940765,0.091031075,0
-0.4565735,1.1497955,0.25623798,0
-0.3464508,1.1150818,-0.1519804,0
-0.3189087,1.1378174,-0.2501402,0
-0.426651,1.1342316,-0.23697186,0
-0.45417786,1.1054993,-0.1807127,0
-0.4338379,1.2228088,-0.30401897,0
-0.42425537,1.2156372,-0.37224102,0
-0.44580078,1.2539368,-0.8690367,0
-0.4948883,1.3209686,-0.7708769,0
-0.6038208,1.313797,-0.07536602,0
-0.80493164,0.96902466,0.61176777,0
-0.74269104,1.0049438,0.6022005,0
-0.6361389,1.1821136,0.29693317,0
-0.679245,0.80622864,-0.0071287155,0
-0.7199402,1.0492401,-0.5051298,0
-0.7019806,1.2754822,0.48847675,0
-0.7606354,0.8553009,1.1408968,0
-0.6337433,0.927124,0.52917194,0
-0.32728577,1.3544922,0.17841816,0
-0.26863098,1.3401337,-0.34112835,0
-0.49728394,1.0695801,-0.6140623,0
-0.5427704,1.2132416,0.26221943,0
-0.48171997,1.1773224,0.7482424,0
-0.4733429,1.1701355,-0.088534355,0
-0.39312744,1.1390228,-0.46441936,0
-0.3584137,1.3401337,-0.63081646,0
-0.4853058,1.2240143,-0.28126812,0
-0.6732483,1.0959167,0.20356464,0
-0.5283966,1.0911255,0.107785225,0
-0.3464508,1.250351,-0.19388103,0
-0.25904846,1.0240936,-0.08732891,0
-0.2207489,1.2575226,-0.31358624,0
-0.25427246,1.3101959,-0.28605938,0
-0.2997589,1.1390228,-0.14958477,0
-0.3584137,0.99057007,0.045544624,0
-0.3763733,1.0755768,0.335248,0
-0.33805847,1.076767,0.26101398,0
-0.3572235,0.9738159,-0.18429852,0
-0.43263245,1.0097351,-0.3291502,0
-0.43981934,0.9414978,0.11378193,0
-0.3284912,1.0384674,0.122159004,0
-0.16807556,0.95106506,0.23707294,0
-0.042373657,0.98339844,-0.2501402,0
-0.0435791,1.1150818,-0.45245647,0
-0.18603516,1.0408478,-0.19507122,0
-0.41827393,1.0408478,-0.15916729,0
-0.57987976,1.0815582,0.18320942,0
-0.52601624,1.0252991,0.17123127,0
-0.5834656,1.0097351,0.20834064,0
-0.76542664,0.9019928,0.37713337,0
-0.92225647,0.83135986,0.42263508,0
-0.80493164,0.9343109,0.074276924,0
-0.71035767,1.0803528,-0.1986723,0
-0.58106995,0.8816376,-0.25253582,0
-0.35003662,0.9319153,-0.19388103,0
-0.09983826,0.93670654,0.3579836,0
0.0043029785,0.96902466,0.1401186,0
0.034240723,1.250351,-0.6116667,0
-0.17286682,1.0695801,-0.088534355,0
-0.3656006,0.6242676,0.4082613,0
-0.2710266,0.62187195,0.5662813,0
-0.029205322,0.9127655,0.22630024,0
0.05218506,1.0025482,-0.9899473,0
0.048599243,0.9702301,-1.3610563,0
0.039016724,0.94029236,-0.26689434,0
-0.18005371,0.86009216,1.1540499,0
-0.3069458,0.5919342,1.6101503,0
-0.2722168,0.6925049,0.810483,0
-0.2722168,0.7751007,-0.31956768,0
-0.45417786,0.8349457,-1.1551542,0
-0.85162354,0.96902466,-0.7373686,0
-0.99287415,0.66496277,0.5734682,0
-0.7690277,0.8325653,0.6728182,0
-0.4158783,1.0121307,0.41065693,0
-0.33088684,1.0097351,-0.35309124,0
-0.4673462,0.8541107,-0.6535673,0
-0.6732483,0.9139557,0.04433918,0
-0.88275146,0.72361755,0.7913332,0
-0.7414856,0.63264465,0.46691608,0
-0.4158783,0.8804474,-0.20584393,0
-0.21595764,0.85650635,-0.47400188,0
-0.21595764,1.0492401,-0.5206938,0
-0.33805847,1.2156372,0.08984089,0
-0.3691864,1.3197784,0.3507967,0
-0.27342224,1.0432434,0.057507515,0
-0.23033142,1.1198578,-0.3004179,0
-0.35482788,1.1916962,-0.30639935,0
-0.59184265,1.0564117,-0.22978497,0
-0.73550415,1.0887451,-0.016711235,0
-0.6289673,1.1390228,0.51479816,0
-0.34405518,1.1497955,0.34721088,0
-0.14294434,1.219223,-0.30520916,0
-0.036392212,1.3616791,-0.6547575,0
-0.033996582,1.1821136,-0.44287395,0
-0.029205322,1.1234589,0.002453804,0
0.0043029785,1.0600128,0.6680269,0
0.1730957,1.0157166,0.65964985,0
0.2592926,1.203659,0.11855793,0
0.16711426,1.1042938,5.8174133E-5,0
-0.051956177,1.2311859,-0.33752728,0
-0.19441223,1.2144318,-0.27408123,0
-0.22433472,1.1234589,-0.21542645,0
-0.095047,1.0863495,-0.32077312,0
0.15513611,1.250351,-0.23338604,0
0.31315613,1.3640747,-0.14599895,0
0.17907715,1.4861755,-0.13641644,0
-0.07948303,1.1019135,0.66683674,0
-0.10702515,1.0731812,0.5339632,0
-0.042373657,1.0169067,0.24665546,0
-0.028015137,0.96543884,-0.25612164,0
0.007904053,1.2264099,-0.8020048,0
-0.013656616,1.2695007,0.0060396194,0
-0.055541992,1.179718,0.42023945,0
-0.063934326,1.3257599,0.5160036,0
0.10127258,1.2611237,0.300519,0
0.19224548,1.1282501,-0.5745573,0
0.19824219,1.0695801,-0.72539043,0
0.14915466,1.2000732,-0.13881207,0
-4.8828125E-4,1.0815582,0.4441805,0
-0.19560242,1.1198578,0.51121235,0
-0.20399475,1.1461945,0.36037922,0
-0.15132141,1.2383728,-0.40097332,0
-0.2710266,1.2635193,-1.0426207,0
-0.43502808,1.0193024,-0.32796,0
-0.32728577,0.9247284,0.19517231,0
-0.18005371,1.2874603,0.3172884,0
-0.17765808,1.298233,0.035962105,0
-0.26383972,1.3820343,-0.73855877,0
-0.45298767,1.3101959,-0.6044798,0
-0.68522644,1.0504303,0.42023945,0
-0.7953644,0.92951965,0.6572542,0
-0.4278412,1.2455597,0.08744526,0
-0.14892578,1.3185883,-0.6691313,0
0.08331299,1.1521912,-1.0450163,0
0.25569153,1.2060547,-0.4081602,0
0.2999878,1.1533813,0.5818453,0
0.22097778,1.2096405,0.96133137,0
0.3466797,1.0707855,0.78654194,0
0.3670349,1.3054199,-0.14599895,0
0.08331299,1.1976776,-0.53026104,0
-0.32130432,1.0600128,-0.5099058,0
-0.5092468,0.8983917,0.052731514,0
-0.37876892,1.1294403,0.44297504,0
-0.042373657,1.1845093,0.5171938,0
0.4484253,1.2443542,-0.095721245,0
0.577713,1.2946472,-0.83313274,0
0.35624695,1.2084503,-0.65596294,0
0.1048584,0.99775696,0.31847858,0
0.10127258,0.86128235,0.7027559,0
0.30836487,1.0540161,0.30770588,0
0.36343384,1.258728,-0.40695477,0
0.2305603,1.0779572,-0.6032896,0
-0.037597656,1.0659943,-0.39499187,0
-0.4194641,1.1701355,0.53635883,0
-0.4374237,1.0205078,0.68838215,0
-0.054351807,1.1928864,-0.11845684,0
0.34907532,1.0600128,-0.5146971,0
0.5753174,1.1318359,-0.6942625,0
0.6459503,1.1150818,0.19039631,0
0.5549774,1.1258545,0.7123232,0
0.42808533,1.1964722,0.20475483,0
0.29640198,1.3820343,-0.4380827,0
0.22218323,1.0731812,-0.44645977,0
0.22218323,1.0743713,-0.6715269,0
0.14796448,1.1174622,-0.04902935,0
0.05937195,1.0803528,0.6608553,0
0.13119507,0.9989624,0.30770588,0
0.08091736,1.2323914,0.19039631,0
-0.14173889,1.1234589,0.1628542,0
-0.23391724,1.0588074,-0.25612164,0
-0.21835327,1.1833038,-0.37703228,0
-0.26504517,1.0181122,0.002453804,0
-0.035202026,0.9307251,-0.16633892,0
0.18626404,1.2946472,-0.3004179,0
0.13838196,1.2515411,-0.4261198,0
-0.024429321,1.1042938,-0.56138897,0
-0.1632843,1.2252045,-0.09930706,0
-0.1525116,1.1880951,0.61895466,0
0.017471313,1.313797,0.57944965,0
0.05218506,1.4861755,0.3292513,0
0.21260071,1.6777191,-0.55061626,0
0.0713501,1.634613,-0.7708769,0
-4.8828125E-4,1.4023743,-0.3183775,0
0.022262573,1.5651855,0.16045856,0
0.33709717,1.7088318,0.83323383,0
0.63038635,1.8752289,0.46452045,0
0.6938324,1.8022156,-0.20106792,0
0.57173157,2.0224762,-0.86545086,0
0.25808716,1.9446716,-0.29802227,0
0.010284424,1.4203339,0.51479816,0
0.12281799,1.4873657,0.30531025,0
0.29759216,1.7375641,-0.05142498,0
0.34547424,1.4047699,-0.65954876,0
0.12402344,1.0540161,-0.92291546,0
-0.095047,0.961853,0.1113863,0
-0.35482788,0.9606476,1.1540499,0
-0.35961914,0.60510254,1.0295534,0
-0.12738037,1.1366272,-0.19627666,0
0.14317322,1.1473999,-0.42731,0
0.050994873,1.392807,-0.9073515,0
-0.056747437,1.3784332,-0.20584393,0
-0.134552,1.7974243,0.46214008,0
0.06774902,2.2044373,0.5279665,0
0.38737488,2.2583008,0.25623798,0
0.52864075,2.0931091,-0.66792583,0
0.35147095,1.9937439,-1.1647215,0
-0.047164917,1.6441956,-0.4883604,0
-0.5750885,0.9307251,-0.028674126,0
-0.5092468,1.0300751,0.31368732,0
-0.20639038,0.9989624,0.92660236,0
0.27963257,1.0923309,-0.25732708,0
0.29519653,1.4622345,-1.0019255,0
0.20541382,1.4418793,-0.17592144,0
-0.057937622,1.2671051,0.5459261,0
-0.011260986,1.6202545,0.8631563,0
0.07733154,1.8357239,0.4729128,0
0.1730957,1.7974243,-0.6535673,0
0.14317322,1.7639008,-1.2988005,0
-0.07710266,1.902771,-0.53026104,0
-0.44100952,1.6274261,0.59022236,0
-0.59902954,1.3425293,0.7087374,0
-0.4841156,1.3066101,0.10180378,0
-0.4625702,1.1940765,-0.35190105,0
-0.59065247,1.0635986,-0.47879314,0
-0.7414856,1.1294403,0.019207954,0
-0.6433258,1.2850647,0.6859865,0
-0.46855164,1.3329468,0.3903017,0
-0.012451172,1.4263153,-0.102892876,0
0.38378906,1.7232056,-0.26211834,0
0.6387634,1.7148285,0.064694405,0
0.64834595,1.9686127,0.002453804,0
0.6902466,1.8429108,0.07307148,0
0.6244049,1.7279968,-0.57934856,0
0.33351135,1.4658203,-0.8020048,0
0.09529114,1.3078003,-0.35429668,0
-0.19920349,1.258728,0.35558796,0
-0.5715027,0.9845886,0.6141634,0
-0.7043762,1.2635193,0.01560688,0
-0.77500916,1.456253,-0.107684135,0
-0.9581604,1.1785278,-0.42731,0
-0.8671875,1.2252045,-0.51111126,0
-0.5894623,1.5687714,0.050335884,0
-0.33926392,1.5963135,0.50043964,0
0.022262573,1.9147339,0.21912861,0
0.31315613,2.0799408,0.08984089,0
0.2592926,1.6765137,-0.2609129,0
0.19584656,1.6310272,-0.91214275,0
0.011489868,1.4933624,-0.15677166,0
-0.2099762,1.0576172,0.3507967,0
-0.047164917,1.1342316,-0.1519804,0
0.027053833,1.3568878,-0.45364666,0
-0.1525116,1.3449249,-0.758914,0
-0.4338379,1.3149872,-0.67869854,0
-0.64811707,1.5173035,-0.045443535,0
-0.88752747,1.3449249,0.8128786,0
-0.7127533,1.4502563,0.6919832,0
-0.32130432,1.9063568,-0.19027996,0
-0.25427246,1.8608704,-1.1060667,0
-0.3584137,2.045227,-1.8542509,0
-0.51164246,2.1314087,-1.0629759,0
-0.64212036,1.7387695,0.079068184,0
-0.6301575,1.5592041,0.62733173,0
-0.27581787,1.4059753,0.9098482,0
0.015075684,1.2706909,-0.066988945,0
0.0043029785,1.2144318,-0.87382793,0
-0.29736328,1.100708,-0.3973875,0
-0.59783936,1.0013428,0.35319233,0
-0.53079224,1.1809082,0.82604694,0
-0.40750122,1.5149078,0.6417055,0
-0.059143066,1.6525726,0.074276924,0
0.022262573,1.7627106,-0.32675457,0
-0.1058197,1.6058807,-0.20225811,0
-0.34284973,1.6920776,-0.10170269,0
-0.41827393,1.4945526,0.49685383,0
-0.25904846,1.219223,0.8224611,0
0.07852173,1.1833038,0.28735065,0
0.19703674,1.3221741,-0.36267376,0
-0.04597473,1.2611237,-0.83313274,0
-0.29496765,1.0528259,-0.63441753,0
-0.39193726,1.2970276,0.112576485,0
-0.37158203,1.3281555,0.5890322,0
-0.10223389,1.4071655,-0.04902935,0
0.06895447,1.5508118,-0.9779844,0
-0.0064697266,1.5268707,-0.63919353,0
-0.14294434,1.1605682,0.39988422,0
-0.23391724,1.2288055,0.68119526,0
-0.025619507,1.250351,0.48487568,0
0.18865967,1.1845093,-0.32435894,0
0.31196594,1.0432434,-0.88460064,0
0.15873718,1.2599182,-0.87263775,0
-0.134552,1.2252045,0.004834175,0
-0.29138184,1.2060547,0.44537067,0
-0.2674408,1.3640747,0.42023945,0
-0.13096619,1.4059753,0.17841816,0
-0.15609741,1.4239197,-0.76848125,0
-0.37039185,1.3006287,-1.0629759,0
-0.5750885,1.1461945,-0.5637846,0
-0.5942383,1.1473999,0.057507515,0
-0.35601807,1.1593628,0.36636066,0
0.027053833,1.3556976,0.17841816,0
0.35984802,1.4885712,-0.16156292,0
0.26408386,1.5364532,-0.5051298,0
-0.13575745,1.4490662,-0.19627666,0
-0.48651123,1.2922516,0.059903145,0
-0.6876221,1.2635193,-0.074160576,0
-0.71875,1.3125916,0.03956318,0
-0.68522644,1.2096405,0.13172626,0
-0.53318787,1.3520966,0.11855793,0
-0.52001953,1.4095612,0.43938923,0
-0.59065247,1.334137,0.25742817,0
-0.6433258,1.3868103,-0.00833416,0
-0.6110077,1.1078949,0.18200397,0
-0.5822754,1.2276001,0.114972115,0
-0.6134033,1.2970276,0.038357735,0
-0.76423645,1.2778778,-0.16035748,0
-0.85162354,1.1761322,-0.43928814,0
-0.921051,1.171341,-0.2321806,0
-0.88513184,1.124649,0.093426704,0
-0.79296875,1.1138763,-0.21063519,0
-0.7307129,1.1904907,-0.39978313,0
-0.7211304,1.1545715,-0.21542645,0
-0.8181,1.1282501,0.2418642,0
-0.88394165,1.1509857,0.48966694,0
-0.9509735,1.2431641,-0.12803936,0
-0.97491455,1.2599182,-0.6691313,0
-1.1018219,1.1473999,-0.41174603,0
-1.1592712,1.0588074,0.14849567,0
-1.1461029,1.1665497,0.3101015,0
-1.0060425,1.3389282,-0.0322752,0
-0.8013458,1.2048645,-0.3794279,0
-0.6756439,1.179718,-0.39259624,0
-0.60621643,1.1437988,0.13053608,0
-0.64572144,1.2563324,0.1796236,0
-0.6145935,1.1869049,-0.3399229,0
-0.5930481,1.289856,-0.41174603,0
-0.53318787,1.164154,0.05871296,0
-0.59783936,1.2407684,0.083844185,0
-0.6014252,1.334137,0.16645527,0
-0.59065247,1.1976776,-0.1914854,0
-0.584671,1.2276001,-0.60927105,0
-0.5427704,1.1737366,-0.06817913,0
-0.521225,1.0959167,0.37115192,0
-0.40750122,1.0971222,0.38911152,0
-0.33926392,1.337738,-0.03944683,0
-0.5092468,1.2515411,-0.0322752,0
-0.72831726,1.0635986,-0.078951836,0
-0.83366394,1.2575226,0.24306965,0
-0.91267395,1.2910461,0.63091755,0
-0.7798004,1.0300751,0.023999214,0
-0.5631256,1.3401337,-0.73974895,0
-0.44940186,1.289856,-0.28006268,0
-0.3859558,1.0205078,0.14130878,0
-0.24349976,1.1031036,0.5854311,0
-0.0040740967,1.2120361,0.3507967,0
-0.039993286,1.3209686,-0.5242796,0
-0.34883118,1.2311859,-0.64158916,0
-0.71754456,1.116272,0.0036439896,0
-1.0072479,1.1473999,0.498044,0
-1.1413116,1.4191437,-0.081347466,0
-1.1616669,1.2467499,-0.32435894,0
-0.9402008,0.89720154,-0.13283062,0
-0.64930725,1.0360718,0.5195894,0
-0.45178223,1.1330261,1.1301088,0
-0.25306702,1.1880951,0.069485664,0
-0.19680786,1.3305511,-0.8917875,0
-0.35601807,1.1869049,-0.55780315,0
-0.5667114,0.9055786,0.20596027,0
-0.68881226,1.2180176,0.34122944,0
-0.75704956,1.3161926,0.24425983,0
-0.6624756,1.210846,-0.42491436,0
-0.57987976,1.1282501,-0.8415098,0
-0.6612854,1.353302,-0.27528667,0
-0.75823975,1.0695801,0.6524782,0
-0.6337433,1.3066101,0.14370441,0
-0.36799622,1.4550476,0.04673481,0
-0.16567993,1.6178589,-0.59849834,0
-0.16807556,1.7567139,-0.74335,0
-0.15849304,1.9171295,-0.100497246,0
-0.1812439,1.9350891,0.13293171,0
-0.18722534,1.962616,0.0539217,0
-0.18843079,1.6884918,0.49206257,0
-0.11898804,1.4059753,0.1113863,0
-0.16209412,1.5196991,-0.28366375,0
-0.34284973,1.2635193,-0.114871025,0
-0.32130432,0.9498749,0.03237629,0
-0.09744263,0.8768463,0.59859943,0
0.17668152,0.9810028,0.9433718,0
0.24491882,1.3880157,0.13891315,0
0.26408386,1.4789886,-0.35548687,0
0.18626404,1.3604736,-0.37344646,0
-0.08906555,1.3078003,-0.14000225,0
-0.41467285,1.1845093,0.20475483,0
-0.23272705,1.0336761,-0.117266655,0
0.061767578,1.3078003,-1.0031157,0
0.11923218,1.3209686,-0.8702421,0
0.11323547,1.1318359,-0.09691143,0
0.16471863,1.1976776,0.28376484,0
0.14077759,1.3712616,0.21673298,0
-0.08427429,1.4011841,-0.43091106,0
-0.20639038,1.4347076,-1.2545042,0
-0.4481964,1.0085297,-0.062197685,0
-0.7594452,0.20169067,2.2829256,0
-0.2901764,0.1585846,2.8886538,0
0.6674957,1.1306305,1.6735964,0
1.1247864,1.5328674,-0.6511717,0
1.0122681,1.6956635,-1.5070982,0
0.76327515,0.9534607,0.3903017,0
0.48553467,0.48898315,1.7621889,0
0.52264404,1.3461151,1.5479097,0
0.5358124,0.9127655,1.1648378,0
0.5023041,0.47702026,-1.1994505,0
0.6399689,1.2240143,-3.0429716,0
0.6244049,1.7351685,-3.3314848,0
-0.20758057,1.9781799,-3.9815092,0
-1.431015,1.8249512,-2.242114,0
-2.090622,0.51771545,1.4652987,0
-1.8535919,0.46743774,2.2278566,0
-1.4501648,1.6717224,0.8679476,0
-1.3496094,1.6681366,-1.4783659,0
-1.0060425,1.5436401,-3.5840635,0
-0.624176,1.6166534,-2.0134764,0
-0.8456421,0.7319946,3.0885744,0
-0.27700806,0.1693573,3.679944,0
1.4396362,1.2264099,0.6620455,0
2.6247559,1.6034851,-0.28485394,0
2.5313873,1.2012634,-1.1707182,0
1.529419,1.0635986,-0.28605938,0
0.9823303,0.91156006,2.7725344,0
1.019455,0.6242676,2.8180208,0
1.4288635,0.8553009,0.43220234,0
1.7963715,1.0528259,-0.5757475,0
1.534195,0.80981445,-0.9552336,0
1.0565643,0.9786072,-0.5721617,0
0.46040344,1.337738,0.52198505,0
0.20063782,1.195282,0.45614338,0
0.31196594,1.1521912,-0.50033855,0
0.36463928,1.1593628,-0.4201231,0
0.47117615,0.69488525,0.5842409,0
0.7692566,0.942688,0.8799257,0
1.2864075,1.507721,0.52198505,0
1.0948639,1.1150818,-0.15437603,0
0.7979889,0.49137878,-1.3035917,0
0.80636597,0.8541107,-0.6152525,0
0.6818695,0.8816376,0.67641926,0
0.3610382,0.8014374,0.5519228,0
0.18386841,0.8517151,0.16405964,0
0.2880249,0.97262573,-0.6858854,0
0.08691406,1.3114014,-1.739337,0
-0.17526245,0.79185486,-2.4288664,0
-0.71635437,0.6182709,-2.5545683,0
-1.6464996,0.5404663,-0.3303404,1
-2.332428,-0.02696228,2.4026308,1
-1.7207184,1.0791626,-0.45125103,1
-0.7905731,2.45224,-1.991931,1
-2.0583038,2.3840027,0.0036439896,1
-3.323639,1.1437988,1.3731203,1
-3.1644135,0.65060425,1.9848452,1
-1.3807373,0.85650635,1.7789431,1
0.45082092,0.9522705,-1.3574553,1
1.1451416,1.4394836,-2.8478575,1
0.18865967,1.7435455,0.6895876,1
-0.66368103,1.4347076,2.61691,1
-0.6325531,1.2419739,1.197156,1
0.19584656,1.3509064,0.36277485,1
0.47236633,1.1904907,-0.12803936,1
0.2999878,0.7463684,-0.6751127,1
-0.011260986,0.6745453,0.19279194,1
-0.38833618,0.69129944,0.53635883,1
-0.545166,0.66137695,-0.30520916,1
-0.56192017,0.88523865,-0.5925169,1
-0.6696625,1.1258545,-0.31956768,1
-0.88035583,1.2012634,-0.062197685,1
-0.9042969,1.234787,0.09940815,1
-0.7714081,1.1605682,-0.03944683,1
-0.624176,1.2455597,-0.59849834,1
-0.6900177,1.1126862,-0.33154583,1
-0.64811707,1.0109253,-0.38182354,1
-0.6505127,1.0899353,-0.3866148,1
-0.76423645,1.0959167,0.067090034,1
-0.82528687,0.9630432,0.062298775,1
-0.79655457,1.1054993,-0.0610075,1
-0.73908997,1.2383728,-0.17831707,1
-0.78338623,1.2970276,-0.6834898,1
-0.9785156,1.250351,-0.93368816,1
-1.21315,1.1893005,-0.71820354,1
-1.6069946,0.8660736,0.49685383,1
-1.7051544,0.69369507,0.7302828,1
-1.3005371,1.4347076,-0.48237896,1
-1.2670135,1.6394043,-0.99592876,1
-1.2718048,1.5137024,-1.7549009,1
-1.189209,1.6046906,-1.7955961,1
-0.97372437,1.6585541,-1.5190763,1
-1.2694092,1.3916016,-0.99234295,1
-1.2849731,0.5727844,0.2705965,1
-1.0970306,0.48779297,0.7219057,1
-0.88394165,1.1461945,2.3762941,1
-0.8288727,0.85769653,3.5015688,1
-0.40629578,0.44110107,2.446927,1
-0.030410767,0.23519897,3.1831484,1
0.44483948,0.28668213,1.8292208,1
1.4396362,1.1126862,-0.5721617,1
1.2002106,0.9091797,0.5590944,1
0.65193176,0.37287903,0.2598238,1
1.1319733,1.3916016,0.29334736,1
1.2816162,1.461029,2.2817202,1
0.40293884,0.55722046,-0.00593853,1
0.23414612,1.0647888,-1.6878538,1
-0.20877075,1.5400391,-0.15077496,1
-1.3795471,0.9929657,-0.57335186,1
-2.4521484,0.60749817,-1.8363066,1
-2.6041718,1.0707855,-1.8099699,1
-2.655655,1.3724518,-1.4747801,1
-2.61615,1.334137,-1.3861876,1
-2.857956,1.313797,-1.0210752,1
-3.0111847,1.471817,-1.1336088,1
-2.7621918,1.5292664,-0.9360838,1
-2.265396,1.3604736,-0.7804594,1
-1.5004425,1.456253,-1.1371946,1
-0.7774048,1.8297424,-1.2329588,1
-0.91267395,1.5053253,-0.31239605,1
-0.9569702,0.95466614,0.20116901,1
-0.47573853,0.8373413,-0.81158733,1
-0.06991577,0.57398987,-1.8674192,1
-0.46495056,0.44230652,-1.7860289,1
-1.3113098,0.4614563,-0.011919975,1
-1.7279053,0.6374359,2.469678,1
-1.4046783,1.373642,2.1284914,1
-0.4374237,2.191269,-0.9480467,1
-0.4158783,2.8077698,-1.0366392,1
-1.1389313,1.5855408,0.45614338,1
-1.3879242,0.55363464,1.0355501,1
-0.5128479,1.1437988,1.7526064,1
0.73454285,1.2371826,0.8236513,1
0.7872162,0.8469238,0.6285372,1
0.013885498,1.2491455,3.7517672,1
0.025848389,1.5675812,4.4257326,1
0.6674957,1.0719757,1.9369631,1
1.7724304,1.3664703,-0.4488554,1
2.4978638,1.6286316,-1.6866636,1
1.7113647,1.6310272,-1.2389402,1
0.7943878,1.3904114,-0.014315605,1
0.5453949,1.3700562,0.6943636,1
0.4771576,1.171341,0.31489277,1
0.3466797,0.7834778,-0.51829815,1
-0.07829285,0.42315674,-1.2581053,1
-0.69241333,0.36090088,-1.2796507,1
-1.407074,0.3752594,-0.9899473,1
-1.8954926,0.353714,-1.3490782,1
-2.2522278,0.63983154,-1.976367,1
-2.4952393,1.2647095,-1.6567411,1
-2.940567,1.4574432,-1.0055113,1
-3.1320953,1.5496216,-0.8642607,1
-2.9202118,1.79982,-0.8307371,1
-2.4329834,1.7962189,-0.87622356,1
-1.8571777,1.4646301,-1.0629759,1
-1.3053284,1.5053253,-0.9253111,1
-0.8348541,1.5663757,0.083844185,1
-0.46855164,1.3844147,0.7075319,1
-0.013656616,1.1473999,0.6512728,1
0.31555176,1.0815582,0.50762653,1
0.27604675,0.9714203,0.8990755,1
0.25091553,0.6374359,0.8081026,1
0.5597687,0.9786072,0.5171938,1
0.7369385,1.3389282,0.7003603,1
0.71299744,1.4502563,0.770978,1
0.6244049,1.3904114,0.928998,1
0.6315918,1.5663757,0.66564655,1
0.43167114,1.3520966,0.6500826,1
0.21499634,0.95706177,0.2993288,1
0.2892151,1.006134,-0.2381773,1
0.10606384,0.966629,0.088635445,1
-0.060333252,0.8253784,-0.14479351,1
-0.16448975,0.9893799,-0.288455,1
-0.32369995,1.2072449,-0.114871025,1
-0.521225,1.2814789,-0.18908978,1
-0.7211304,1.2060547,-0.41653728,1
-0.8073273,1.2240143,-0.4560423,1
-0.91267395,1.2299957,-0.49196148,1
-0.87435913,1.1521912,-0.1914854,1
-0.763031,1.1378174,-0.30401897,1
-0.624176,1.298233,0.32685566,1
-0.66726685,1.1450043,0.35319233,0
-0.28538513,1.1833038,-0.8702421,0
-0.07710266,1.3509064,-1.0893126,0
-0.2961731,1.456253,-0.38063335,0
-0.63853455,1.1306305,0.2310915,0
-0.7618408,0.9678345,0.1293459,0
-0.58106995,0.9594574,0.46214008,0
-0.21955872,1.0863495,0.24546528,0
0.19943237,1.3233643,-0.545825,0
0.20422363,1.3760376,-0.8211546,0
0.12042236,1.2395782,-0.124453545,0
-0.044769287,1.2335815,0.29095173,0
-0.06871033,1.2910461,0.5519228,0
0.060577393,1.0995178,0.2203188,0
0.22576904,1.2132416,-0.6044798,0
0.16830444,1.3329468,-0.5673704,0
-0.07948303,1.2180176,0.34840107,0
-0.21476746,1.2778778,0.56986713,0
-0.21595764,1.4466705,0.60937214,0
-0.36439514,1.2252045,0.26461506,0
-0.3296814,1.0444489,-0.32435894,0
-0.17286682,1.0827484,-0.18789959,0
-0.22673035,1.100708,0.20356464,0
-0.2315216,1.0731812,0.25742817,0
-0.19799805,1.1653595,0.0060396194,0
-0.21716309,1.1306305,0.07546711,0
-0.24708557,1.0384674,-0.14360332,0
-0.17526245,1.2958374,-0.40097332,0
-0.3069458,1.1150818,-0.12803936,0
-0.44340515,0.8624878,0.064694405,0
-0.36439514,0.99775696,0.22630024,0
-0.22673035,1.1569672,0.32446003,0
-0.06752014,1.0432434,-0.40695477,0
0.012680054,1.334137,-0.9540434,0
0.023452759,1.210846,-0.2501402,0
-0.022033691,0.982193,0.23588276,0
0.13240051,0.9738159,0.57226276,0
0.25091553,1.0552216,0.41186237,0
0.1802826,1.1318359,-0.65954876,0
-0.1812439,0.9929657,-0.6332121,0
-0.4888916,0.79904175,0.47410297,0
-0.67085266,0.6673584,0.9505434,0
-0.5068512,0.8157959,0.7230959,0
-0.43023682,0.7319946,0.0251894,0
-0.34165955,0.5919342,-0.8235502,0
-0.55114746,0.6206665,-0.31239605,0
-0.7319031,0.3309784,1.0606813,0
-0.64212036,0.44709778,0.96371174,0
-0.44340515,0.6757355,0.30291462,0
-0.27461243,0.66137695,-0.19507122,0
-0.24349976,0.44470215,-0.36746502,0
-0.2387085,0.54525757,0.1448946,0
-0.387146,0.47462463,0.592618,0
-0.3284912,0.42434692,0.17483234,0
-0.129776,0.4039917,-0.4045744,0
-0.08666992,0.645813,-0.47519207,0
-0.33805847,0.41236877,0.39869404,0
-0.5140381,0.38365173,0.4477663,0
-0.5499573,0.6374359,0.1915865,0
-0.6229706,0.5871582,-0.14599895,0
-0.62776184,0.527298,-0.600894,0
-0.58825684,0.57876587,-0.38182354,0
-0.40031433,0.590744,0.335248,0
-0.37278748,0.44828796,0.41186237,0
-0.26623535,0.42315674,0.08504963,0
-0.4338379,0.5835571,0.13772297,0
-0.6325531,0.34773254,0.48248005,0
-0.7666321,0.39561462,0.26101398,0
-0.82289124,0.49137878,0.23588276,0
-0.7774048,0.48779297,0.11855793,0
-0.8193054,0.43392944,-0.20704937,0
-0.7295227,0.645813,-0.24055767,0
-0.723526,0.8541107,-0.026278496,0
-0.63853455,0.9235382,0.05152607,0
-0.6912079,0.9199524,0.0539217,0
-0.6469116,0.90797424,0.1113863,0
-0.59065247,0.9786072,-0.03467083,0
-0.62057495,0.9917755,-0.05621624,0
-0.63853455,1.0959167,-0.1232481,0
-0.7151489,1.0779572,-0.112475395,0
-0.7007904,1.1880951,-0.4560423,0
-0.90190125,1.3892059,-0.8271513,0
-1.0431519,1.5173035,-0.70624065,0
-0.91625977,1.3245697,-0.70624065,0
-0.5942383,1.416748,-0.85348797,0
-0.3296814,1.5400391,-0.9360838,0
-0.08666992,1.4347076,-0.9288969,0
0.043807983,1.3592834,-0.8103819,0
0.05697632,1.4335022,-0.37823772,0
-0.016036987,1.3173828,-0.057406425,0
-0.036392212,1.1725311,-0.3686552,0
-0.011260986,1.1437988,-0.37105083,0
-0.19799805,1.0420532,-0.0011472702,0
-0.3069458,1.0552216,0.02758503,0
-0.545166,1.1078949,-0.0035429,0
-0.75346375,1.1330261,0.059903145,0
-0.9390106,0.9594574,0.27657795,0
-0.98928833,0.9642334,0.3101015,0
-1.015625,1.0528259,0.5998049,0
-0.93063354,0.97621155,0.7542238,0
-0.7498627,1.0085297,0.45974445,0
-0.60621643,1.1593628,0.42741108,0
-0.4781189,1.0013428,0.61536884,0
-0.45298767,0.8756561,0.10180378,0
-0.33926392,1.0839539,-0.100497246,0
-0.48291016,0.7751007,0.4010744,0
-0.2710266,0.83973694,-0.293231,0
-0.18962097,1.0540161,-0.20823956,0
-0.1812439,0.7152405,0.25384235,0
-0.11540222,0.6134949,0.033566475,0
0.0761261,0.68292236,0.22869587,0
0.12879944,0.6134949,0.21194172,0
0.09049988,0.5620117,-0.46802044,0
0.16113281,0.5847626,-0.35309124,0
0.15753174,0.669754,-0.2609129,0
0.22218323,0.7104492,-0.10409832,0
0.24372864,0.6015167,0.031170845,0
0.38258362,0.7463684,-0.19627666,0
0.4185028,0.7751007,-0.00593853,0
0.2892151,0.6158905,0.14610004,0
0.23774719,0.6565857,-0.03944683,0
0.14317322,0.6960907,-0.00593853,0
0.10246277,0.5919342,-0.040652275,0
0.022262573,0.45187378,-0.04423809,0
0.046203613,0.5871582,0.13293171,0
-0.047164917,0.5811615,0.41663837,0
-0.036392212,0.50694275,0.4549532,0
0.013885498,0.40878296,0.42142963,0
0.14675903,0.55722046,0.3065157,0
0.05218506,0.43632507,0.24665546,0
-0.12258911,0.29745483,0.10659504,0
-0.2997589,0.3249817,0.2418642,0
-0.43623352,0.31541443,0.2131319,0
-0.5092468,0.24359131,0.06110859,0
-0.4673462,0.23640442,-0.028674126,0
-0.21835327,0.37167358,-0.11366558,0
-0.10223389,0.44230652,-0.1807127,0
0.031845093,0.25076294,-0.06338787,0
0.13957214,0.34414673,-0.2609129,0
0.22097778,0.4650421,-0.10170269,0
0.15513611,0.393219,-0.009524345,0
0.10606384,0.4614563,-0.37105083,0
0.025848389,0.5799713,-0.31717205,0
-0.19082642,0.43032837,-0.074160576,0
-0.2506714,0.3357544,-0.0322752,0
-0.347641,0.49856567,-0.1340208,0
-0.41827393,0.52848816,-0.07297039,0
-0.50445557,0.49977112,-0.34829998,0
-0.5559387,0.6685486,-0.2824583,0
-0.6253662,0.7044678,0.04194355,0
-0.6517029,0.6482086,0.08984089,0
-0.6552887,0.7032776,-0.02508831,0
-0.66607666,0.8050232,-0.069384575,0
-0.6517029,0.8229828,-0.010714531,0
-0.6014252,0.7272186,0.1448946,0
-0.40031433,0.8553009,0.22150898,0
-0.2494812,0.82058716,0.26101398,0
-0.005264282,0.79185486,0.14968586,0
0.11323547,0.90078735,0.02039814,0
0.17907715,0.99775696,0.03956318,0
0.08451843,0.9953613,-0.0011472702,0
0.05458069,1.0348663,0.08744526,0
-0.026824951,0.94389343,0.31847858,0
-0.017242432,0.882843,0.14251423,0
0.09049988,1.0025482,-0.13881207,0
0.03543091,0.9343109,-0.13283062,0
0.034240723,0.91156006,0.03477192,0
0.047409058,1.0169067,0.18560505,0
0.12042236,1.0540161,0.24784565,0
0.10246277,0.97262573,-0.119662285,0
0.048599243,1.1042938,-0.39499187,0
-0.12258911,0.9738159,0.035962105,0
-0.23750305,0.98339844,-0.04423809,0
-0.24349976,1.037262,0.086239815,0
-0.27342224,0.8768463,0.25742817,0
-0.22554016,0.9642334,-0.0011472702,0
-0.11300659,1.0947266,0.124554634,0
-0.14653015,1.0480347,0.02039814,0
-0.15609741,1.085144,-0.33273602,0
-0.07710266,0.961853,-0.00833416,0
-0.07589722,0.9630432,0.05152607,0
-0.07110596,0.92832947,0.013226509,0
-0.12617493,0.98698425,-0.0047330856,0
-0.19082642,1.1485901,-0.30520916,0
-0.3224945,1.2060547,-0.110079765,0
-0.27342224,0.98817444,0.32566547,0
-0.09625244,1.1150818,-0.095721245,0
0.17430115,1.0552216,-0.02029705,0
0.27246094,0.96543884,-0.098116875,0
0.34907532,0.8924103,-0.100497246,0
0.45082092,1.0743713,0.22750568,0
0.3215332,0.8373413,0.4776888,0
0.37660217,0.8146057,0.1508913,0
0.37660217,1.0205078,-0.011919975,0
0.1802826,0.9055786,0.22869587,0
0.047409058,0.927124,-0.00833416,0
-0.07829285,1.0971222,-0.08972454,0
-0.16926575,1.1354218,-0.064593315,0
-0.18962097,1.1042938,-0.26211834,0
-0.010055542,1.1833038,-0.045443535,0
0.037826538,1.1940765,0.0060396194,0
0.08929443,0.9845886,0.17243671,0
0.20780945,0.92593384,0.22990131,0
0.22576904,0.9043884,0.21912861,0
0.26527405,0.88642883,0.3388338,0
0.24133301,0.59432983,0.49924946,0
0.4077301,0.74038696,0.19637775,0
0.419693,0.84931946,0.3675661,0
0.35505676,0.5380707,0.6800051,0
0.5837097,0.67214966,0.18919086,0
0.74650574,1.0324707,-0.064593315,0
0.85066223,1.1749268,0.119763374,0
0.66989136,0.9043884,-0.0945158,0
0.6495514,1.0659943,-0.12803936,0
0.5130768,1.0504303,0.22271442,0
0.2700653,0.78826904,-0.15677166,0
0.2521057,0.8816376,-0.48356915,0
0.20063782,0.99775696,-0.19267559,0
-0.005264282,0.8660736,0.014416695,0
-0.19920349,0.8517151,-0.100497246,0
-0.14173889,1.179718,0.03477192,0
-0.12498474,1.2623138,-0.26330853,0
-0.17047119,1.1210632,-0.6296263,0
-0.06512451,1.1761322,-0.26211834,0
0.018676758,1.1414032,0.09701252,0
0.13000488,1.0240936,-0.057406425,0
0.1910553,1.0312805,-0.32435894,0
0.14077759,1.1833038,-0.57695293,0
0.058181763,1.1665497,-0.40336895,0
-0.056747437,1.2419739,-0.32675457,0
-0.134552,1.4059753,-0.45364666,0
-0.12498474,1.5579987,-1.0426207,0
-0.030410767,1.8273468,-1.450839,0
-0.24708557,1.8668518,-1.150363,0
-0.36799622,1.9255066,-0.90495586,0
-0.42185974,1.7315826,-0.2824583,0
-0.6409302,1.3413239,0.014416695,0
-0.9653473,0.9139557,0.038357735,0
-1.1161804,0.57876587,0.23467731,0
-0.8564148,0.73439026,0.0251894,0
-0.44100952,0.90078735,0.43101215,0
0.034240723,0.9319153,0.80331135,0
0.89256287,1.0971222,0.93020344,0
1.7281342,1.2946472,1.3252382,0
2.3218994,1.1342316,1.5239687,0
2.5768738,0.8756561,1.1696138,0
2.873764,0.79904175,1.1947603,0
2.7767944,0.51293945,1.2653933,0
2.533783,0.353714,0.64050007,0
2.487091,0.26753235,0.5890322,0
2.2033844,0.24957275,0.38911152,0
1.8203125,0.3644867,0.035962105,0
1.6658783,0.5799713,0.13532734,0
1.2528839,0.82177734,-0.12683392,0
0.8710022,1.2359772,-0.54103374,0
0.45681763,1.4502563,-0.55899334,0
0.11683655,1.3425293,-0.5338621,0
-0.15011597,1.3425293,-0.7720823,0
-0.3368683,1.2359772,-0.5027342,0
-0.45777893,1.0899353,-0.5434294,0
-0.5715027,0.99057007,-0.8463011,0
-0.67085266,0.9786072,-0.7517271,0
-0.7726135,1.0384674,-0.64519024,0
-0.8588104,1.0552216,-0.44168377,0
-0.89711,1.2826691,-0.43210125,0
-0.82647705,1.6860962,-0.40217876,0
-0.81570435,1.7243958,0.0060396194,0
-0.61938477,1.7639008,-0.32796,0
-0.35961914,1.9338989,-0.51230145,0
-0.30934143,1.6860962,0.10419941,0
-0.16807556,1.2431641,0.103009224,0
0.07852173,1.3808289,0.114972115,0
0.46279907,1.3808289,0.4369936,0
0.62680054,1.2431641,0.19996357,0
0.7501068,1.3042145,-0.10170269,0
0.7919922,1.5544128,0.37713337,0
0.8590393,1.3006287,0.79612446,0
0.8051605,1.3616791,0.18320942,0
0.7309418,1.5196991,0.3172884,0
0.5250397,1.4586487,0.06589985,0
0.3682251,1.4287109,-0.30520916,0
0.1048584,1.432312,0.057507515,0
-0.04597473,1.2359772,0.23827839,0
-0.031600952,1.3473053,-0.20106792,0
0.029449463,1.392807,0.14251423,0
-0.007659912,1.4071655,-0.013110161,0
0.045013428,1.5496216,-0.16754436,0
-0.039993286,1.6980591,-0.32556438,0
-0.032806396,1.5496216,0.013226509,0
-0.039993286,1.432312,-0.35548687,0
0.08451843,1.4885712,-0.25851727,0
0.05697632,1.5340576,-0.4261198,0
0.050994873,1.3425293,-0.10888958,0
-0.08427429,1.6058807,-0.29802227,0
-0.10821533,1.4143524,0.2023592,0
-0.18962097,1.6645508,-0.12922955,0
-0.08068848,1.2096405,0.18200397,0
-0.11779785,1.6729279,-0.38901043,0
-0.016036987,1.2671051,0.081448555,0
-0.10702515,1.7004547,-0.17831707,0
0.053390503,1.3604736,0.081448555,0
0.05218506,1.7950287,-0.19627666,0
0.06774902,1.5041351,-0.293231,0
0.04978943,1.5699768,-0.19267559,0
0.015075684,1.595108,-0.30879498,0
-0.023223877,1.511322,0.39390278,0
-0.17166138,1.5831451,-0.35190105,0
-0.15969849,1.4514618,0.033566475,0
-0.18603516,1.7112274,-0.33273602,0
-0.11779785,1.5065308,-0.12085247,0
-0.18005371,1.7411652,-0.062197685,0
0.06535339,1.2048645,0.513608,0
0.18746948,1.753128,-0.30401897,0
0.34069824,1.5184937,-0.0023374557,0
0.13240051,1.5795441,0.14849567,0
0.26527405,1.3748474,0.064694405,0
0.07254028,1.8848114,-0.047839165,0
0.040222168,1.3640747,-0.055010796,0
-0.10223389,1.5208893,-0.4201231,0
-0.061538696,1.3856201,0.082654,0
-0.1920166,1.6310272,0.39269733,0
-0.25904846,1.432312,-0.016711235,0
-0.25306702,1.6837006,-0.13043499,0
-0.29377747,1.4777985,-0.023882866,0
-0.3224945,1.3700562,0.088635445,0
-0.26383972,1.3652649,-0.093325615,0
-0.023223877,1.4981537,0.117367744,0
0.015075684,1.5484314,-0.44645977,0
0.08691406,1.531662,-0.15796185,0
0.007904053,1.5304718,-0.2381773,0
-0.08666992,1.6130676,-0.12922955,0
-0.36080933,1.3556976,0.08025837,0
-0.20159912,1.3712616,-0.0011472702,0
-0.22433472,1.8129883,-0.83671856,0
-0.13575745,1.6585541,-0.43568707,0
-0.17645264,1.4754028,-0.42251873,0
0.15873718,1.3664703,0.30891132,0
0.26168823,1.5735626,0.26461506,0
0.5082855,1.471817,0.009625435,0
0.4292755,1.461029,-0.288455,0
0.41731262,1.3844147,0.12814045,0
0.08929443,1.5592041,0.33285236,0
0.007904053,1.4287109,0.62614155,0
-0.174057,1.4825897,-0.093325615,0
-0.090270996,1.5029297,-0.29562664,0
-0.28538513,1.7830505,-0.51948833,0
-0.22673035,1.5496216,-0.13043499,0
-0.29257202,1.7567139,-0.24774456,0
0.042617798,1.5436401,0.25384235,0
0.036621094,1.784256,-0.18789959,0
0.2700653,1.4119568,0.112576485,0
0.07493591,1.7519379,-0.1914854,0
-0.020828247,1.3281555,0.2418642,0
-0.29257202,1.6082764,-0.10170269,0
-0.19560242,1.1749268,0.076672554,0
-0.21716309,1.476593,-0.39020061,0
-0.05076599,0.8337555,0.013226509,0
-0.016036987,1.045639,-0.32675457,0
-0.04118347,0.97262573,-0.3219633,0
-0.08427429,1.1150818,0.2490511,0
-0.04597473,0.8924103,0.32446003,0
0.16830444,1.4275208,-0.22140789,0
0.07014465,1.3856201,0.14251423,0
-0.1058197,1.045639,0.04913044,0
-0.20399475,0.94389343,-0.16873455,0
-0.32011414,1.2455597,0.079068184,0
-0.4553833,0.8074188,0.28017902,0
-0.35601807,0.6087036,-0.19388103,0
-0.22554016,0.8924103,-0.086138725,0
-0.23033142,0.6242676,0.4729128,0
-0.21476746,0.37886047,-0.122057915,0
-0.15609741,0.41236877,-0.069384575,0
-0.21716309,0.5979309,0.02758503,0
-0.24588013,0.50575256,0.15926838,0
-0.1920166,0.57876587,0.03956318,0
-0.26983643,0.7751007,-0.110079765,0
-0.31651306,0.72361755,0.06589985,0
-0.29855347,0.3992157,0.19279194,0
-0.22433472,0.5799713,-0.107684135,0
-0.1920166,0.59432983,-0.011919975,0
-0.15490723,0.46743774,-0.13162518,0
-0.07948303,0.5500488,0.013226509,0
-0.13215637,0.5440521,0.60099506,0
-0.11061096,0.6601715,0.091031075,0
-0.11300659,0.7272186,-0.066988945,0
-0.14892578,0.7044678,0.095822334,0
-0.13336182,0.91516113,0.071881294,0
-0.21116638,0.903183,0.26940632,0
-0.31292725,0.803833,-0.26928997,0
-0.3404541,0.79185486,-0.41055584,0
-0.40150452,0.74038696,0.03716755,0
-0.36080933,0.63383484,0.27418232,0
-0.2889862,0.9163513,0.012021065,0
-0.2889862,1.0588074,0.07546711,0
-0.4278412,0.9594574,-0.03944683,0
-0.5954437,1.085144,-0.19027996,0
-0.72592163,1.1869049,0.21792316,0
-0.66845703,0.9917755,-0.0071287155,0
-0.39312744,1.2156372,-0.5637846,0
-0.18962097,1.2096405,-0.18669415,0
-0.04597473,1.0552216,0.15447712,0
-0.023223877,1.1617584,0.002453804,0
-0.17047119,1.1186676,0.4082613,0
-0.36080933,0.9965668,0.16166401,0
-0.5427704,0.9235382,-0.059802055,0
-0.4553833,0.9378967,0.06110859,0
-0.45059204,1.0264893,-0.19986248,0
-0.23033142,1.0300751,-0.22140789,0
-0.087875366,1.2168274,-0.26689434,0
0.060577393,1.2180176,-0.066988945,0
0.16950989,1.2910461,-0.021502495,0
0.13479614,1.3425293,-0.23697186,0
0.007904053,1.2599182,-0.16394329,0
-0.2710266,1.1186676,-0.22978497,0
-0.42066956,1.210846,-0.34471416,0
-0.6134033,1.1066895,0.02758503,0
-0.67803955,0.82896423,0.122159004,0
-0.5391846,0.91156006,-0.112475395,0
-0.44940186,0.8804474,-0.0071287155,0
-0.30455017,0.63983154,-0.10170269,0
-0.07110596,0.75115967,-0.2202177,0
0.23893738,0.75234985,0.42501545,0
0.4472351,0.7751007,0.04913044,0
0.7656555,0.97740173,-0.2788725,0
0.909317,0.96902466,0.01800251,0
0.76805115,0.94628906,-0.064593315,0
0.6794739,0.8014374,0.5279665,0
0.6315918,0.8325653,0.40347004,0
0.45202637,0.7571411,0.20715046,0
0.32392883,0.5620117,-0.0047330856,0
0.3215332,1.0109253,-0.5027342,0
0.17070007,1.2491455,0.15687275,0
0.03303528,1.219223,0.31968403,0
0.13598633,1.5196991,0.16045856,0
0.13957214,1.4646301,0.22750568,0
0.029449463,1.219223,0.008435249,0
0.14915466,1.1390228,-0.2274046,0
0.2700653,1.1318359,0.13651752,0
0.3394928,1.2264099,-0.15317059,0
