acc_x,acc_y,acc_z,label
-0.08308411,1.4741974,0.07067585,0
-0.1010437,1.4023743,0.09461689,0
0.042617798,1.4861755,-0.117266655,0
-0.08547974,1.4311066,-0.17831707,0
0.007904053,1.4658203,-0.21423626,0
-0.056747437,1.4263153,0.071881294,0
0.10964966,1.5220947,0.122159004,0
0.037826538,1.5208893,0.11617756,0
0.06655884,1.5568085,-0.1232481,0
0.023452759,1.4873657,-0.20823956,0
0.0043029785,1.5448303,-0.31717205,0
-0.09265137,1.5376587,-0.013110161,0
-0.12258911,1.4849854,0.1341219,0
0.012680054,1.5412445,0.082654,0
0.11923218,1.555603,-0.07297039,0
0.18746948,1.5496216,-0.13522625,0
0.09408569,1.4670258,-0.16873455,0
0.09768677,1.4945526,-0.07536602,0
-0.022033691,1.4347076,0.064694405,0
0.07733154,1.4945526,0.012021065,0
-0.04118347,1.6082764,-0.05382061,0
0.058181763,1.500534,-0.26211834,0
-0.061538696,1.5196991,0.04913044,0
0.21260071,1.6310272,0.074276924,0
0.042617798,1.5436401,0.19279194,0
0.07852173,1.4813843,-0.38540936,0
0.0066986084,1.3568878,-0.30520916,0
0.040222168,1.4466705,-0.15556622,0
-0.17765808,1.4993439,0.38073444,0
-0.35482788,1.5939178,-0.009524345,0
0.12042236,1.5256805,-0.41174603,0
0.51068115,1.5627899,-0.18669415,0
0.36582947,1.5747681,0.16645527,0
0.12879944,1.4825897,0.114972115,0
0.05937195,1.4191437,-0.023882866,0
-0.019638062,1.432312,-0.050219536,0
-0.042373657,1.5627899,-0.04902935,0
-0.15132141,1.5603943,-0.13283062,0
0.031845093,1.547226,-0.27647686,0
0.08929443,1.4670258,-0.10409832,0
0.21499634,1.5484314,0.067090034,0
0.07852173,1.5196991,0.11378193,0
0.13240051,1.5615997,-0.15556622,0
-0.06272888,1.4490662,-0.045443535,0
-0.035202026,1.5496216,-0.05142498,0
-0.11540222,1.5436401,-0.10170269,0
0.08331299,1.5639801,-0.19746685,0
0.05697632,1.4406891,0.05631733,0
0.24731445,1.5771484,-0.016711235,0
0.14077759,1.5292664,0.014416695,0
0.13957214,1.4909668,-0.14239788,0
0.036621094,1.468216,-0.1232481,0
0.09648132,1.5855408,-0.059802055,0
-0.047164917,1.4837799,0.08744526,0
0.09887695,1.5244904,-0.14718914,0
0.10127258,1.4837799,-0.059802055,0
0.19584656,1.5292664,0.009625435,0
0.12162781,1.500534,-0.057406425,0
0.162323,1.5579987,-0.1519804,0
-0.022033691,1.4598389,0.013226509,0
0.048599243,1.5137024,-0.031069756,0
-0.0064697266,1.5208893,-0.16394329,0
0.042617798,1.5029297,-0.19027996,0
-0.049560547,1.4418793,-0.08732891,0
0.021072388,1.5627899,0.02279377,0
-4.8828125E-4,1.5460358,0.05152607,0
0.04978943,1.4861755,-0.07057476,0
0.09408569,1.5065308,-0.24774456,0
0.17549133,1.5795441,0.004834175,0
0.13719177,1.5963135,0.071881294,0
0.15394592,1.5424347,0.074276924,0
0.11802673,1.511322,-0.15077496,0
0.10366821,1.4514618,-0.07297039,0
0.08929443,1.5843353,-0.17473125,0
0.10725403,1.5568085,0.16166401,0
0.08691406,1.4861755,-0.12803936,0
0.017471313,1.3269653,-0.08494854,0
0.058181763,1.6370087,-0.3866148,0
0.05218506,1.7208099,0.1796236,0
0.12879944,1.8381195,0.076672554,0
0.09648132,1.5771484,0.28257465,0
0.15873718,1.6154633,-0.2788725,0
-4.8828125E-4,1.3892059,-0.050219536,0
0.040222168,1.5268707,-0.14360332,0
0.028244019,1.5208893,0.24067402,0
0.18865967,1.5879364,-0.0322752,0
0.15634155,1.5388489,-0.10170269,0
0.21020508,1.4706116,-0.3004179,0
0.07972717,1.5304718,-0.11606121,0
0.0043029785,1.3544922,0.098217964,0
-0.032806396,1.5592041,-0.06338787,0
-0.03878784,1.4825897,0.004834175,0
-0.035202026,1.5831451,-0.2274046,0
-0.055541992,1.4849854,-0.08255291,0
-0.03878784,1.6298218,-0.24774456,0
-0.06871033,1.4574432,0.1796236,0
0.012680054,1.5137024,-0.10649395,0
0.08810425,1.353302,0.110180855,0
0.24731445,1.5268707,-0.25493145,0
0.20661926,1.3700562,0.05152607,0
0.2772522,1.5376587,-0.37703228,0
0.19584656,1.4598389,0.08744526,0
0.18507385,1.6214447,-0.081347466,0
-0.007659912,1.4514618,0.1843996,0
0.05937195,1.5987091,-0.2429533,0
-0.08666992,1.4011841,0.03956318,0
0.03303528,1.5771484,-0.2704954,0
7.171631E-4,1.4825897,0.09701252,0
0.13000488,1.5292664,-0.00593853,0
0.08691406,1.4059753,0.05152607,0
0.26408386,1.516098,-0.20225811,0
0.18147278,1.4658203,-0.074160576,0
0.19345093,1.4969482,-0.100497246,0
0.06535339,1.492157,0.0036439896,0
0.07852173,1.4861755,0.047940254,0
-0.007659912,1.5592041,-0.15916729,0
0.012680054,1.5125122,-0.08255291,0
0.0066986084,1.5675812,-0.17473125,0
0.058181763,1.4586487,0.1401186,0
0.12640381,1.5759583,-0.17233562,0
0.11323547,1.4119568,0.071881294,0
0.12281799,1.5256805,-0.23099041,0
0.0821228,1.3796387,0.13772297,0
0.17190552,1.5891266,-0.23099041,0
0.07254028,1.4263153,0.105389595,0
0.12042236,1.5568085,-0.20823956,0
0.053390503,1.4311066,0.12574482,0
0.17070007,1.6250458,-0.21423626,0
0.017471313,1.4694214,0.112576485,0
0.12640381,1.6058807,-0.25732708,0
0.013885498,1.4155426,0.07786274,0
0.12521362,1.5244904,-0.12922955,0
0.034240723,1.468216,0.0251894,0
0.18626404,1.5699768,-0.16394329,0
0.010284424,1.4311066,0.082654,0
0.08929443,1.5089264,-0.100497246,0
0.03543091,1.4981537,-0.13162518,0
0.10246277,1.5017395,-0.04902935,0
0.021072388,1.4789886,0.014416695,0
0.16471863,1.5603943,-0.05621624,0
0.14556885,1.6058807,-0.11366558,0
0.11323547,1.4275208,0.02998066,0
0.11444092,1.5101166,-0.18669415,0
0.12879944,1.461029,0.14370441,0
0.06895447,1.5496216,-0.112475395,0
0.0761261,1.4466705,0.04673481,0
0.12521362,1.5998993,-0.293231,0
0.015075684,1.3868103,0.19279194,0
0.10366821,1.5998993,-0.28126812,0
0.031845093,1.4670258,0.064694405,0
0.10725403,1.5735626,-0.16035748,0
0.010284424,1.416748,0.12695026,0
0.18746948,1.6394043,-0.27647686,0
0.05218506,1.4825897,0.09223652,0
0.14675903,1.5592041,-0.16754436,0
0.034240723,1.4239197,0.091031075,0
0.17070007,1.531662,-0.114871025,0
0.016281128,1.4394836,0.007229805,0
0.15992737,1.511322,-0.18789959,0
0.050994873,1.4730072,-0.04663372,0
0.09768677,1.4586487,0.10419941,0
0.1048584,1.5783539,-0.17473125,0
0.13598633,1.495758,-0.031069756,0
0.046203613,1.507721,-0.100497246,0
0.09169006,1.4658203,0.05871296,0
0.13598633,1.6334229,-0.2202177,0
0.053390503,1.437088,0.071881294,0
0.07852173,1.4945526,-0.13283062,0
0.11802673,1.492157,0.04194355,0
0.10845947,1.5292664,-0.11606121,0
0.0761261,1.452652,-0.03944683,0
0.07254028,1.4550476,-0.11128521,0
0.09169006,1.5149078,0.03716755,0
0.07014465,1.5448303,-0.114871025,0
0.12042236,1.5137024,-0.114871025,0
0.023452759,1.4418793,0.028775215,0
0.14796448,1.5460358,-0.07297039,0
0.07852173,1.5328674,-0.06338787,0
0.11444092,1.5125122,-0.10649395,0
0.09529114,1.4861755,-0.010714531,0
0.18626404,1.5723724,-0.1519804,0
0.058181763,1.461029,0.010830879,0
0.11323547,1.4646301,-0.09212017,0
0.1048584,1.4646301,-0.0047330856,0
0.10127258,1.5149078,-0.0610075,0
0.09768677,1.492157,-0.047839165,0
0.08331299,1.5089264,-0.13762188,0
0.09648132,1.476593,0.110180855,0
0.053390503,1.5436401,-0.090929985,0
0.14796448,1.5268707,-0.119662285,0
0.031845093,1.4406891,0.019207954,0
0.16950989,1.5244904,-0.069384575,0
0.12760925,1.5891266,-0.124453545,0
0.15634155,1.4993439,-0.00833416,0
0.029449463,1.4263153,0.01560688,0
0.16471863,1.5843353,-0.19986248,0
0.05458069,1.5208893,0.03716755,0
0.017471313,1.432312,-0.03467083,0
0.08570862,1.5484314,-0.12564373,0
0.08929443,1.5400391,-0.0011472702,0
0.09529114,1.5017395,-0.04663372,0
0.047409058,1.4598389,-0.10888958,0
0.18507385,1.5651855,-0.112475395,0
0.046203613,1.4909668,0.007229805,0
0.1108551,1.4382935,-0.05142498,0
0.06895447,1.531662,-0.03467083,0
0.1335907,1.5256805,-0.0657835,0
0.05937195,1.4706116,-0.050219536,0
-0.037597656,1.4071655,-0.015505791,0
-0.11061096,1.5184937,0.02279377,0
0.13719177,1.5436401,-0.16754436,0
0.414917,1.5400391,-0.2609129,0
0.3670349,1.507721,-0.04184246,0
0.3610382,1.5508118,0.15568256,0
0.20661926,1.4347076,0.004834175,0
0.12640381,1.4059753,-0.22140789,0
0.019866943,1.516098,-0.117266655,0
-0.030410767,1.6130676,0.004834175,0
-0.10821533,1.531662,-0.0011472702,0
-0.12857056,1.5101166,-0.05621624,0
0.06895447,1.5627899,0.110180855,0
-0.07948303,1.5041351,-0.071780205,0
0.04978943,1.4646301,-0.52907085,0
0.034240723,1.4789886,-0.07536602,0
0.15513611,1.5460358,0.3496065,0
0.10964966,1.4849854,0.19279194,0
0.22218323,1.432312,-0.2788725,0
0.22816467,1.4981537,-0.31000042,0
0.17907715,1.5544128,-0.066988945,0
0.07972717,1.5149078,0.110180855,0
0.012680054,1.4442749,0.064694405,0
0.12042236,1.5304718,-0.076556206,0
0.08091736,1.5424347,-0.16633892,0
0.13479614,1.4897614,-0.13881207,0
0.042617798,1.4730072,-0.06817913,0
0.12162781,1.5400391,-0.0023374557,0
0.024658203,1.531662,0.08984089,0
0.07733154,1.4634247,-0.08494854,0
0.11444092,1.5029297,-0.090929985,0
0.10006714,1.5053253,-0.14599895,0
0.021072388,1.461029,-0.076556206,0
-0.028015137,1.5041351,-0.0047330856,0
0.08810425,1.5939178,0.01800251,0
0.043807983,1.4909668,-0.016711235,0
0.19703674,1.4658203,-0.23936749,0
0.21858215,1.4299164,-0.23099041,0
0.24612427,1.500534,-0.13881207,0
0.1515503,1.6238403,0.37473774,0
0.046203613,1.6118774,0.088635445,0
0.047409058,1.5615997,-0.16994,0
-0.18603516,1.4239197,0.12334919,0
-0.111816406,1.4502563,-0.57695293,0
-0.090270996,1.5125122,-0.0945158,0
0.10366821,1.5651855,0.3507967,0
0.25091553,1.5987091,0.02758503,0
0.41131592,1.5244904,-0.18789959,0
0.32992554,1.4730072,-0.29683208,0
0.26885986,1.5340576,-0.064593315,0
0.048599243,1.5496216,0.095822334,0
-0.14772034,1.4789886,0.18081379,0
-0.1812439,1.5915222,-0.06338787,0
-0.0435791,1.5568085,-0.30520916,0
-0.116607666,1.4430847,-0.20704937,0
-0.06272888,1.4394836,-0.112475395,0
0.1335907,1.5627899,0.10899067,0
0.162323,1.5280762,0.19517231,0
0.26885986,1.4406891,-0.086138725,0
0.33470154,1.4825897,-0.32796,0
0.20301819,1.4299164,-0.18429852,0
0.031845093,1.4382935,0.014416695,0
-0.07829285,1.4550476,0.093426704,0
0.03303528,1.571167,-0.074160576,0
0.010284424,1.5568085,-0.114871025,0
0.028244019,1.5280762,-0.17473125,0
0.016281128,1.5364532,-0.17352581,0
0.042617798,1.6286316,0.04433918,0
0.07374573,1.6334229,0.12695026,0
0.06295776,1.5795441,-0.06338787,0
0.15873718,1.5328674,-0.2274046,0
0.08929443,1.4538574,-0.124453545,0
0.025848389,1.4658203,5.8174133E-5,0
0.07733154,1.5232849,0.11378193,0
0.11802673,1.5292664,-0.17473125,0
0.12879944,1.4933624,-0.1232481,0
0.08810425,1.4706116,-0.01790142,0
0.12281799,1.6214447,-0.11128521,0
0.06295776,1.634613,0.028775215,0
-0.012451172,1.5927124,5.8174133E-5,0
-0.08068848,1.5615997,-0.04184246,0
-0.0040740967,1.5675812,-0.17352581,0
-0.0016784668,1.5615997,-0.105288506,0
-0.057937622,1.5029297,0.0036439896,0
0.036621094,1.6046906,-0.095721245,0
0.027053833,1.6154633,0.057507515,0
0.012680054,1.516098,0.038357735,0
0.045013428,1.5256805,-0.10649395,0
0.0713501,1.5579987,-0.14718914,0
0.018676758,1.5232849,-0.02029705,0
-0.08187866,1.500534,-0.090929985,0
-0.0028686523,1.6214447,-0.12683392,0
-0.026824951,1.610672,-0.1627531,0
-0.029205322,1.5735626,-0.55061626,0
-0.17047119,1.5747681,0.3615694,0
-0.17166138,1.6226501,0.23229694,0
-0.19560242,1.5256805,0.21912861,0
-0.11061096,1.4107513,0.33762836,0
0.23175049,1.610672,-0.7708769,0
0.2197876,1.6334229,-0.7026396,0
-0.010055542,1.4909668,-0.033465385,0
-0.14294434,1.5017395,0.3507967,0
-0.11540222,1.5927124,0.19877338,0
-0.08547974,1.5568085,0.08504963,0
-0.016036987,1.5364532,-0.3111906,0
0.22218323,1.6250458,-0.47998333,0
0.031845093,1.5771484,-0.02748394,0
-0.12857056,1.5017395,0.114972115,0
-0.023223877,1.5232849,0.112576485,0
0.021072388,1.5496216,0.040753365,0
0.061767578,1.5196991,-0.1340208,0
0.034240723,1.5699768,-0.37463665,0
0.040222168,1.6094818,-0.11845684,0
-0.11300659,1.5579987,0.18560505,0
-0.12258911,1.5173035,-0.0071287155,0
0.016281128,1.586731,-0.028674126,0
0.037826538,1.5891266,-0.16156292,0
0.0821228,1.5484314,-0.20584393,0
-0.0040740967,1.5065308,0.004834175,0
0.034240723,1.571167,0.0251894,0
0.005508423,1.6034851,-0.033465385,0
-0.049560547,1.4981537,-0.06338787,0
0.039016724,1.5627899,-0.14839458,0
0.0019073486,1.6166534,-0.22380352,0
7.171631E-4,1.5699768,0.019207954,0
-0.08308411,1.5544128,0.009625435,0
0.03303528,1.555603,-0.03467083,0
0.03543091,1.6022949,-0.04184246,0
-0.033996582,1.5125122,-0.17352581,0
0.14077759,1.547226,-0.38901043,0
-0.07589722,1.626236,0.028775215,0
-0.12738037,1.5532074,0.20834064,0
-0.14653015,1.5987091,-0.016711235,0
-0.08427429,1.595108,-0.1519804,0
-0.08427429,1.5615997,0.0036439896,0
-0.23033142,1.5125122,0.010830879,0
-0.08547974,1.5675812,0.004834175,0
-0.12019348,1.6405945,0.1915865,0
-0.08187866,1.4933624,0.06828022,0
0.0761261,1.5603943,-0.40576458,0
0.15394592,1.6453857,-0.63081646,0
0.06774902,1.5424347,-0.10649395,0
-0.18603516,1.456253,0.38192463,0
-0.055541992,1.5987091,0.13053608,0
0.024658203,1.6310272,-0.04423809,0
-0.0028686523,1.4442749,-0.15077496,0
0.16711426,1.5579987,-0.39978313,0
0.1156311,1.665741,-0.21423626,0
-0.10702515,1.4945526,0.22630024,0
-0.14653015,1.4706116,0.21194172,0
0.08451843,1.6824951,-0.24895,0
0.042617798,1.5879364,-0.119662285,0
-0.08666992,1.4358978,-0.081347466,0
0.09648132,1.6286316,-0.29085064,0
0.031845093,1.6765137,0.06110859,0
-0.13815308,1.4227295,0.21552753,0
0.025848389,1.5699768,-0.15796185,0
0.15513611,1.7148285,-0.28366375,0
0.007904053,1.4825897,-0.0035429,0
-0.057937622,1.471817,-0.040652275,0
0.10127258,1.6681366,-0.093325615,0
-0.03878784,1.6334229,0.08504963,0
-0.13215637,1.4622345,-0.0047330856,0
0.13240051,1.586731,-0.33873272,0
0.0019073486,1.626236,-0.11128521,0
-0.066329956,1.4335022,-0.13641644,0
-0.0723114,1.5927124,-0.00833416,0
-0.049560547,1.6298218,0.2418642,0
-0.08427429,1.547226,-0.031069756,0
-0.0016784668,1.5496216,-0.52307415,0
0.12402344,1.610672,-0.3794279,0
-0.14294434,1.571167,0.1448946,0
-0.27342224,1.5149078,0.20116901,0
-0.18243408,1.6011047,0.15328693,0
-0.20758057,1.6034851,0.19756794,0
-0.08427429,1.5208893,-0.209445,0
0.015075684,1.5987091,-0.4380827,0
-0.05076599,1.6190491,-0.15317059,0
-0.18962097,1.5855408,0.15328693,0
-0.25785828,1.5520172,0.1448946,0
-0.08068848,1.586731,-0.110079765,0
-0.049560547,1.6250458,-0.3590727,0
-0.10223389,1.5065308,-0.11845684,0
-0.016036987,1.5975037,-0.009524345,0
-0.13336182,1.6441956,-0.0370512,0
-0.12857056,1.500534,0.17841816,0
-0.09744263,1.5699768,-0.090929985,0
0.019866943,1.6441956,-0.33154583,0
-0.031600952,1.6034851,-0.15077496,0
-0.21237183,1.4945526,0.07307148,0
-0.026824951,1.5819397,-0.04184246,0
-0.061538696,1.6202545,-0.05382061,0
-0.12617493,1.4897614,0.02039814,0
0.029449463,1.6214447,-0.26211834,0
-0.024429321,1.6777191,-0.19507122,0
-0.18363953,1.4873657,0.29453754,0
-0.13815308,1.5244904,0.08984089,0
0.07374573,1.6525726,-0.25253582,0
0.027053833,1.5280762,-0.0945158,0
-0.116607666,1.4574432,-0.22978497,0
0.06895447,1.6777191,-0.26570415,0
-0.011260986,1.6848907,0.098217964,0
-0.18363953,1.4347076,0.26221943,0
0.08451843,1.5579987,-0.21542645,0
0.13598633,1.6753235,-0.32796,0
0.0019073486,1.4538574,0.076672554,0
-0.032806396,1.5520172,-0.114871025,0
0.04978943,1.6633453,-0.098116875,0
-0.054351807,1.5508118,0.16405964,0
-0.15371704,1.4598389,-0.0023374557,0
0.1503601,1.6489868,-0.33154583,0
0.043807983,1.6322174,-0.08972454,0
-0.12617493,1.4119568,0.091031075,0
0.0821228,1.5496216,-0.62004375,0
-0.07350159,1.6932678,-0.064593315,0
-0.29855347,1.4777985,0.57226276,0
-0.22433472,1.5352631,0.32685566,0
0.012680054,1.6645508,-0.117266655,0
0.11683655,1.5220947,-0.14360332,0
0.09768677,1.5280762,-0.49196148,0
0.22697449,1.6729279,-0.47279644,0
0.0066986084,1.6154633,-0.08732891,0
-0.2674408,1.4239197,0.29334736,0
-0.09864807,1.6058807,0.23229694,0
0.009094238,1.6944733,-0.0023374557,0
0.10127258,1.4789886,-0.1340208,0
0.19584656,1.5412445,-0.47279644,0
0.14556885,1.6202545,-0.22978497,0
-0.060333252,1.4993439,0.2705965,0
-0.21356201,1.531662,0.23588276,0
-0.0016784668,1.6370087,-0.17352581,0
0.010284424,1.5771484,-0.28605938,0
-0.08068848,1.492157,-0.209445,0
0.0761261,1.6286316,-0.12085247,0
0.024658203,1.6537628,0.050335884,0
-0.111816406,1.4418793,0.23707294,0
0.061767578,1.5603943,-0.1232481,0
0.13838196,1.6621552,-0.3363371,0
0.017471313,1.4873657,0.002453804,0
-0.08308411,1.5544128,-0.038256645,0
0.043807983,1.6394043,-0.069384575,0
-0.019638062,1.571167,0.021603584,0
-0.10462952,1.476593,0.01560688,0
0.16113281,1.6238403,-0.30879498,0
0.05937195,1.6130676,-0.39378643,0
-0.15011597,1.4694214,0.21433735,0
-0.035202026,1.6046906,0.083844185,0
-0.005264282,1.674118,0.021603584,0
-0.095047,1.461029,0.11855793,0
0.009094238,1.5220947,-0.31479168,0
0.15513611,1.6705322,-0.4476652,0
0.0043029785,1.5639801,0.086239815,0
-0.15132141,1.4730072,0.10659504,0
0.029449463,1.5759583,-0.06338787,0
0.018676758,1.6298218,-0.081347466,0
-0.061538696,1.468216,-0.04902935,0
0.17430115,1.6070862,-0.28605938,0
0.06535339,1.6681366,-0.10409832,0
-0.095047,1.456253,0.18800068,0
-0.0723114,1.5568085,-0.105288506,0
0.019866943,1.6238403,-0.117266655,0
-0.012451172,1.5436401,-0.04423809,0
-0.08308411,1.5053253,-0.13762188,0
0.04978943,1.6022949,-0.15317059,0
-0.024429321,1.5843353,0.08025837,0
-0.031600952,1.4754028,0.059903145,0
0.08929443,1.5795441,-0.17473125,0
0.045013428,1.6226501,-0.18789959,0
-0.07710266,1.4406891,-0.023882866,0
-0.060333252,1.5496216,-0.11845684,0
-0.06871033,1.6226501,-0.066988945,0
-0.10462952,1.5053253,0.12814045,0
-0.09385681,1.5639801,-0.038256645,0
0.041412354,1.6358185,-0.14718914,0
0.009094238,1.5627899,-0.04423809,0
-0.08187866,1.4095612,0.09940815,0
0.09169006,1.5436401,-0.18908978,0
-0.060333252,1.6286316,-0.21063519,0
-0.09864807,1.4454803,0.14849567,0
0.009094238,1.5639801,-0.14479351,0
0.04978943,1.6669312,-0.11128521,0
0.18746948,1.4706116,0.079068184,0
0.15753174,1.416748,-0.25612164,0
-0.1010437,1.6298218,-0.124453545,0
-0.31532288,1.6178589,0.37473774,0
-0.18482971,1.4777985,0.24665546,0
0.42329407,1.5675812,-0.877429,0
0.55137634,1.5747681,-0.66434,0
0.19584656,1.4059753,0.5171938,0
0.1503601,1.5196991,0.40946674,0
0.13598633,1.5987091,0.05152607,0
-0.114212036,1.3952026,-0.14599895,0
-0.18603516,1.5268707,-0.4548521,0
-0.032806396,1.6944733,-0.25732708,0
-0.054351807,1.5747681,0.122159004,0
0.048599243,1.4741974,0.062298775,0
0.26168823,1.5651855,-0.100497246,0
0.2700653,1.5376587,0.14729023,0
0.25091553,1.4658203,0.055111885,0
0.28323364,1.5807495,-0.24774456,0
0.1108551,1.5532074,-0.17592144,0
-0.16448975,1.3963928,-0.0035429,0
-0.1632843,1.4598389,-0.12564373,0
-0.04118347,1.6465912,-0.019106865,0
-0.0723114,1.476593,0.052731514,0
0.045013428,1.507721,-0.2501402,0
0.18147278,1.6286316,-0.30639935,0
0.14796448,1.5424347,0.069485664,0
0.06535339,1.4586487,0.1628542,0
0.16950989,1.6166534,-0.15677166,0
0.10246277,1.5520172,-0.059802055,0
-0.055541992,1.413147,-0.069384575,0
0.027053833,1.5460358,-0.23099041,0
0.07254028,1.5998993,-0.01790142,0
-0.07110596,1.4299164,0.13891315,0
0.1048584,1.5125122,-0.14000225,0
0.19345093,1.6513824,-0.21184063,0
0.10246277,1.4706116,0.06828022,0
0.09049988,1.4813843,-0.0610075,0
0.14317322,1.6250458,-0.14479351,0
0.07733154,1.5436401,0.021603584,0
-0.032806396,1.432312,0.012021065,0
0.15634155,1.5855408,-0.2501402,0
0.15753174,1.5747681,-0.02987957,0
-0.011260986,1.408371,0.083844185,0
0.09768677,1.5520172,-0.1340208,0
0.12042236,1.6429901,-0.09930706,0
-0.057937622,1.4263153,0.050335884,0
0.028244019,1.4538574,-0.1232481,0
0.09887695,1.6537628,-0.16514874,0
0.040222168,1.5137024,0.124554634,0
-0.0028686523,1.5029297,-0.08732891,0
0.14556885,1.5651855,-0.19627666,0
0.13000488,1.5579987,-0.00593853,0
-0.032806396,1.4358978,0.03956318,0
0.15753174,1.5579987,-0.17711163,0
0.1048584,1.595108,-0.040652275,0
-0.023223877,1.4011841,0.088635445,0
0.12402344,1.5651855,-0.14718914,0
0.1443634,1.6537628,-0.1412077,0
0.017471313,1.452652,0.083844185,0
0.031845093,1.4694214,-0.05382061,0
0.14915466,1.6609497,-0.22140789,0
0.05218506,1.5615997,0.045544624,0
-0.07589722,1.4418793,-0.01790142,0
0.12162781,1.5663757,-0.18310833,0
0.08810425,1.6011047,-0.057406425,0
-0.08187866,1.397583,0.04673481,0
0.13000488,1.4969482,-0.16873455,0
0.09887695,1.6094818,-0.095721245,0
0.005508423,1.468216,0.064694405,0
0.05697632,1.5544128,-0.15317059,0
0.15634155,1.6118774,-0.14479351,0
0.10366821,1.4777985,0.117367744,0
0.039016724,1.4634247,-0.021502495,0
0.21260071,1.5987091,-0.25612164,0
0.15513611,1.5819397,-0.02748394,0
0.011489868,1.452652,0.062298775,0
0.10127258,1.5603943,-0.1627531,0
0.06774902,1.6549683,-0.14360332,0
-0.05316162,1.4754028,0.12695026,0
-0.0064697266,1.5196991,-0.021502495,0
0.03543091,1.6166534,-0.12085247,0
0.025848389,1.4945526,0.052731514,0
-0.049560547,1.5196991,-0.1232481,0
0.06895447,1.5651855,-0.10888958,0
0.15753174,1.5400391,-0.08255291,0
0.10246277,1.4430847,-0.093325615,0
0.3095703,1.5723724,-0.29562664,0
0.24133301,1.5963135,0.013226509,0
0.039016724,1.447876,0.38432026,0
0.036621094,1.5460358,-0.015505791,0
0.09049988,1.6178589,-0.34950542,0
0.036621094,1.4825897,-0.16754436,0
0.012680054,1.5065308,-0.12922955,0
0.14317322,1.6034851,-0.05861187,0
0.10006714,1.507721,0.22869587,0
0.040222168,1.4347076,0.05871296,0
0.2090149,1.5891266,-0.26570415,0
0.09887695,1.6118774,-0.21063519,0
-0.12857056,1.4275208,0.09701252,0
0.029449463,1.5807495,-0.14718914,0
0.0821228,1.6633453,-0.071780205,0
0.12879944,1.4191437,0.055111885,0
0.04978943,1.4837799,-0.086138725,0
0.12760925,1.6166534,-0.2704954,0
0.08451843,1.4969482,0.21673298,0
-0.10821533,1.4287109,-0.08015728,0
0.09169006,1.610672,-0.26451397,0
0.06774902,1.6310272,0.079068184,0
-0.055541992,1.4754028,0.110180855,0
-0.029205322,1.5532074,0.9421663,0
0.2820282,1.6322174,-0.16754436,0
0.66270447,1.4885712,-0.99952984,0
0.7261658,1.5699768,-1.684268,0
0.33709717,1.5843353,-0.57695293,0
-0.2387085,1.4670258,1.1193361,0
-0.45777893,1.4466705,1.0463228,0
-0.129776,1.5508118,0.43459797,0
0.17430115,1.5975037,-0.21782207,0
0.31196594,1.4825897,-0.7601042,0
0.4376526,1.5687714,-0.937274,0
0.09169006,1.5927124,-0.09930706,0
-0.19920349,1.4598389,0.73507404,0
-0.20159912,1.5795441,0.46691608,0
-0.026824951,1.5783539,0.002453804,0
0.1503601,1.500534,-0.3578825,0
0.20661926,1.4981537,-0.98875713,0
-0.10223389,1.6082764,0.107785225,0
0.16471863,1.5448303,-0.31956768,0
0.2820282,1.5532074,-0.9492521,0
0.2999878,1.6597595,-0.7517271,0
-0.03878784,1.6453857,0.35918903,0
-0.26863098,1.4993439,0.7087374,0
-0.013656616,1.5735626,0.3388338,0
0.13119507,1.5987091,-0.20704937,0
0.23414612,1.5017395,-0.51948833,0
0.24133301,1.5891266,-0.6427946,0
0.1108551,1.6202545,-0.11845684,0
-0.087875366,1.6082764,0.45374775,0
-0.14294434,1.5208893,0.37713337,0
0.10006714,1.6046906,-0.0945158,0
0.09529114,1.5747681,-0.3183775,0
0.09648132,1.471817,-0.35190105,0
0.0713501,1.5496216,-0.23099041,0
-0.014846802,1.5819397,0.15328693,0
-0.066329956,1.6274261,0.27538776,0
0.13719177,1.5735626,0.093426704,0
0.034240723,1.5603943,-0.2776823,0
-0.7498627,1.7459412,-0.46083355,0
-0.14653015,1.507721,-0.3758421,0
0.8566437,1.6226501,0.088635445,0
0.5837097,1.6202545,0.75542927,0
0.162323,1.4825897,0.17841816,0
0.19703674,1.3101959,-0.80440044,0
0.47117615,1.4993439,-0.6367979,0
0.06655884,1.6729279,0.48248005,0
-0.29855347,1.5400391,0.36277485,0
-0.23391724,1.4945526,-0.21063519,0
-0.07350159,1.6130676,-0.21063519,0
0.05458069,1.5795441,-0.0657835,0
0.018676758,1.4945526,-0.43210125,0
0.0066986084,1.6824951,-0.2597227,0
-0.07710266,1.5843353,0.4262209,0
-0.060333252,1.492157,0.23348713,0
0.18865967,1.5998993,-0.35548687,0
0.21380615,1.5831451,-0.33873272,0
0.05697632,1.392807,0.04913044,0
0.14317322,1.5963135,0.07067585,0
0.07733154,1.6968689,-0.0023374557,0
0.005508423,1.4347076,0.124554634,0
-0.010055542,1.4754028,-0.25732708,0
0.036621094,1.6848907,-0.3650694,0
0.005508423,1.6082764,0.09223652,0
-0.047164917,1.4706116,0.14849567,0
0.1730957,1.665741,-0.22380352,0
0.13598633,1.6142731,-0.02987957,0
-0.029205322,1.4095612,0.016812325,0
0.11204529,1.5615997,-0.28126812,0
0.07852173,1.7064362,-0.11366558,0
-0.051956177,1.5244904,0.2885561,0
0.036621094,1.5053253,-0.112475395,0
0.1443634,1.6477814,-0.34829998,0
0.05218506,1.5244904,0.052731514,0
-0.011260986,1.4730072,-0.021502495,0
0.14077759,1.6477814,-0.17113018,0
0.06295776,1.6226501,0.04194355,0
-0.022033691,1.4514618,0.031170845,0
0.17190552,1.5615997,-0.20106792,0
0.11204529,1.6310272,-0.13522625,0
0.019866943,1.492157,0.1448946,0
0.06295776,1.5532074,-0.07297039,0
0.09887695,1.6561584,-0.17473125,0
0.042617798,1.5783539,-0.0035429,0
-0.035202026,1.437088,-0.0657835,0
0.1048584,1.5735626,-0.22261333,0
0.08091736,1.5735626,0.02279377,0
-0.016036987,1.4466705,0.023999214,0
0.07254028,1.5568085,-0.20106792,0
0.07493591,1.6429901,-0.076556206,0
0.046203613,1.5603943,0.07307148,0
0.09049988,1.507721,-0.066988945,0
0.10366821,1.5699768,-0.1519804,0
0.047409058,1.5208893,0.04433918,0
0.007904053,1.5304718,-0.090929985,0
0.1108551,1.5987091,-0.14599895,0
0.07733154,1.5807495,-0.028674126,0
0.005508423,1.4741974,0.009625435,0
0.15394592,1.5568085,-0.12564373,0
0.09049988,1.6453857,-0.11128521,0
-0.0028686523,1.4730072,0.09940815,0
0.029449463,1.5723724,-0.09691143,0
0.030639648,1.6884918,-0.24176311,0
-0.0064697266,1.5196991,0.04913044,0
-0.037597656,1.4119568,0.0539217,0
0.11802673,1.6094818,-0.26451397,0
0.13838196,1.6130676,-0.0047330856,0
0.005508423,1.4335022,0.091031075,0
0.17190552,1.5687714,-0.21063519,0
0.17788696,1.6777191,-0.124453545,0
-0.0016784668,1.4622345,0.12574482,0
0.12042236,1.4741974,-0.17473125,0
0.12640381,1.6597595,-0.20704937,0
0.019866943,1.5089264,0.14370441,0
0.027053833,1.4837799,-0.0945158,0
0.12879944,1.6417999,-0.26809978,0
0.0713501,1.6094818,0.02998066,0
-0.08547974,1.4191437,0.086239815,0
0.1335907,1.5915222,-0.23578167,0
0.07254028,1.6094818,-0.05142498,0
-0.063934326,1.3963928,0.1796236,0
0.07254028,1.5592041,-0.15077496,0
0.13000488,1.7016602,-0.2992277,0
0.06535339,1.4969482,0.06350422,0
0.08451843,1.4454803,-0.013110161,0
0.21020508,1.6729279,-0.29085064,0
0.13838196,1.5615997,0.095822334,0
-0.019638062,1.4023743,0.06589985,0
0.12402344,1.5759583,-0.25732708,0
0.08810425,1.6693268,-0.043047905,0
-0.1058197,1.3999786,0.16405964,0
0.11444092,1.4730072,-0.20106792,0
0.07014465,1.6633453,-0.22619915,0
-0.057937622,1.4670258,0.17841816,0
0.021072388,1.5364532,-0.107684135,0
0.14796448,1.705246,-0.23578167,0
0.06655884,1.5508118,0.09940815,0
0.013885498,1.4011841,-0.01790142,0
0.20780945,1.5771484,-0.2429533,0
0.10964966,1.586731,0.107785225,0
-0.029205322,1.4287109,0.064694405,0
0.16352844,1.5723724,-0.23578167,0
0.09408569,1.6789093,-0.14479351,0
-0.060333252,1.4598389,0.14729023,0
0.11204529,1.5340576,-0.14958477,0
0.12402344,1.7184143,-0.1986723,0
0.053390503,1.5424347,0.13651752,0
0.048599243,1.495758,-0.10649395,0
0.1503601,1.5615997,-0.21782207,0
0.061767578,1.5424347,0.019207954,0
-0.030410767,1.4418793,0.04194355,0
0.12042236,1.5699768,-0.16754436,0
0.042617798,1.674118,-0.03467083,0
0.0043029785,1.5208893,0.062298775,0
0.11802673,1.5520172,-0.17831707,0
0.07852173,1.5998993,-0.13162518,0
0.034240723,1.5065308,0.076672554,0
0.10127258,1.5256805,-0.062197685,0
0.12162781,1.5891266,-0.17113018,0
0.10606384,1.5508118,-0.02987957,0
0.055786133,1.5364532,-0.102892876,0
0.12281799,1.5508118,-0.100497246,0
0.09049988,1.5747681,-0.095721245,0
0.003112793,1.468216,0.10419941,0
0.12162781,1.5819397,-0.12683392,0
0.07374573,1.6298218,-0.09691143,0
0.025848389,1.495758,0.050335884,0
0.039016724,1.5807495,-0.083743095,0
0.08691406,1.6405945,-0.16514874,0
0.05458069,1.5196991,0.052731514,0
0.053390503,1.4777985,-0.08494854,0
0.16471863,1.595108,-0.2381773,0
0.07972717,1.5795441,-0.0035429,0
-0.023223877,1.4861755,0.03956318,0
0.11683655,1.5795441,-0.13641644,0
0.08929443,1.6489868,-0.074160576,0
-0.022033691,1.4670258,0.06828022,0
0.13479614,1.5388489,-0.1914854,0
0.15634155,1.6118774,-0.06817913,0
0.034240723,1.4993439,0.14849567,0
0.06535339,1.5795441,-0.1627531,0
0.13119507,1.6465912,-0.1986723,0
0.009094238,1.5412445,0.03237629,0
-0.005264282,1.4454803,-0.038256645,0
0.1048584,1.5544128,-0.23099041,0
0.058181763,1.5687714,0.02039814,0
0.037826538,1.4909668,0.07067585,0
0.1515503,1.6429901,-0.1627531,0
0.13240051,1.6573639,-0.074160576,0
-0.054351807,1.447876,0.050335884,0
0.06655884,1.4969482,-0.19388103,0
0.07014465,1.6382141,-0.095721245,0
0.012680054,1.5208893,0.098217964,0
0.10246277,1.5496216,-0.119662285,0
0.1515503,1.6094818,-0.23099041,0
0.08570862,1.5568085,-0.040652275,0
0.07374573,1.4969482,0.064694405,0
0.16471863,1.6154633,-0.14360332,0
0.08091736,1.5807495,0.002453804,0
-0.0435791,1.4622345,-0.0011472702,0
0.05458069,1.5771484,-0.22978497,0
0.1156311,1.6729279,-0.102892876,0
-0.044769287,1.4789886,0.16166401,0
0.11683655,1.5089264,-0.09930706,0
0.12879944,1.665741,-0.23338604,0
0.022262573,1.516098,0.071881294,0
0.047409058,1.5184937,-0.028674126,0
0.07254028,1.6118774,-0.19627666,0
0.015075684,1.5795441,0.01560688,0
-0.06272888,1.4634247,0.028775215,0
0.14317322,1.5927124,-0.18429852,0
0.14796448,1.6202545,-0.033465385,0
-0.020828247,1.4466705,0.023999214,0
0.09887695,1.547226,-0.12085247,0
0.12521362,1.6513824,-0.10888958,0
0.0019073486,1.4670258,0.057507515,0
0.12640381,1.5220947,-0.15437603,0
0.08570862,1.6358185,-0.18429852,0
0.025848389,1.5412445,0.122159004,0
0.05218506,1.5520172,-0.0322752,0
0.14556885,1.5987091,-0.21542645,0
0.08451843,1.5819397,-0.033465385,0
-0.07470703,1.447876,0.05152607,0
0.12162781,1.5843353,-0.14239788,0
0.10246277,1.6370087,-0.076556206,0
0.013885498,1.4789886,0.035962105,0
0.09289551,1.555603,-0.17352581,0
0.048599243,1.6286316,-0.17831707,0
-0.022033691,1.5268707,0.122159004,0
0.041412354,1.5280762,-0.050219536,0
0.12042236,1.6250458,-0.18190289,0
0.0761261,1.5615997,0.02758503,0
0.009094238,1.5244904,-0.05142498,0
0.15274048,1.5987091,-0.17113018,0
0.0713501,1.6022949,-0.043047905,0
-0.0723114,1.4466705,0.10659504,0
0.11923218,1.5675812,-0.17711163,0
0.05937195,1.6322174,-0.14360332,0
-0.023223877,1.437088,0.117367744,0
0.060577393,1.5256805,-0.14839458,0
0.14796448,1.6453857,-0.14958477,0
0.06416321,1.5532074,0.10659504,0
0.027053833,1.5196991,-0.081347466,0
0.14796448,1.634613,-0.22619915,0
0.058181763,1.5915222,0.03237629,0
-0.018432617,1.4777985,0.03716755,0
0.1335907,1.5699768,-0.17233562,0
0.07733154,1.6441956,-0.08972454,0
-0.032806396,1.4730072,0.105389595,0
0.10366821,1.5747681,-0.18429852,0
0.09169006,1.626236,-0.124453545,0
0.023452759,1.4861755,0.095822334,0
0.07014465,1.516098,-0.10409832,0
0.10845947,1.555603,-0.13762188,0
0.010284424,1.571167,-0.0370512,0
-0.037597656,1.492157,-0.050219536,0
0.10725403,1.6118774,-0.15317059,0
0.07852173,1.6417999,0.052731514,0
0.053390503,1.4622345,0.052731514,0
0.13957214,1.5927124,-0.18789959,0
0.06895447,1.5915222,-0.15916729,0
-0.037597656,1.5268707,0.023999214,0
0.013885498,1.586731,-0.015505791,0
0.1048584,1.634613,-0.057406425,0
0.0821228,1.5328674,-0.02987957,0
0.07733154,1.4945526,-0.12564373,0
0.13838196,1.5615997,-0.12922955,0
0.037826538,1.5927124,0.009625435,0
-0.035202026,1.471817,0.12095356,0
0.13598633,1.5831451,-0.23099041,0
0.162323,1.6298218,-0.16754436,0
0.07852173,1.4825897,0.09701252,0
0.07254028,1.5496216,-0.11845684,0
0.08570862,1.6274261,-0.14839458,0
-0.023223877,1.507721,0.04673481,0
0.017471313,1.4586487,-0.06817913,0
0.1503601,1.6382141,-0.1914854,0
0.08451843,1.6118774,0.0251894,0
0.061767578,1.4981537,0.04673481,0
0.16471863,1.6274261,-0.1986723,0
0.11923218,1.6837006,-0.05621624,0
-0.05076599,1.4454803,0.091031075,0
0.034240723,1.500534,-0.1412077,0
0.021072388,1.6693268,-0.13162518,0
-0.10343933,1.5340576,0.10659504,0
-0.024429321,1.5053253,-0.122057915,0
0.09768677,1.6154633,-0.22380352,0
0.05697632,1.5400391,0.064694405,0
0.13000488,1.461029,-0.02508831,0
0.23175049,1.571167,-0.20704937,0
0.19584656,1.5735626,5.8174133E-5,0
0.09529114,1.5304718,5.8174133E-5,0
0.13240051,1.5759583,-0.14360332,0
0.0066986084,1.5735626,-0.057406425,0
-0.04837036,1.5460358,0.02758503,0
-0.0040740967,1.5412445,-0.117266655,0
0.015075684,1.5388489,-0.107684135,0
0.03303528,1.5364532,-0.078951836,0
0.06774902,1.5041351,-0.055010796,0
0.1108551,1.5592041,-0.050219536,0
0.12640381,1.5807495,-0.0322752,0
0.12760925,1.5376587,-0.07297039,0
0.10006714,1.5101166,-0.076556206,0
0.046203613,1.6058807,-0.09691143,0
0.003112793,1.5663757,0.008435249,0
-0.008865356,1.5783539,-0.076556206,0
-0.06991577,1.5041351,-0.0610075,0
0.021072388,1.511322,-0.098116875,0
0.053390503,1.5843353,-0.0945158,0
0.09529114,1.4993439,-0.02508831,0
0.1515503,1.5759583,-0.052615166,0
0.17907715,1.6118774,-0.043047905,0
0.10366821,1.516098,-0.04423809,0
0.08451843,1.516098,-0.1412077,0
0.013885498,1.5256805,-0.09691143,0
-0.03878784,1.5675812,0.021603584,0
-0.042373657,1.6322174,-0.031069756,0
0.048599243,1.5998993,-0.08732891,0
0.09169006,1.5975037,-0.12803936,0
0.018676758,1.4394836,-0.0023374557,0
0.13957214,1.5520172,-0.11845684,0
0.12162781,1.5819397,-0.009524345,0
0.06774902,1.4825897,0.052731514,0
0.07254028,1.5639801,-0.15916729,0
0.08810425,1.5639801,-0.13522625,0
0.05458069,1.5568085,-0.04902935,0
0.019866943,1.4741974,0.01560688,0
0.1443634,1.6094818,-0.093325615,0
0.07972717,1.6274261,-0.06338787,0
0.010284424,1.471817,-0.04423809,0
0.06895447,1.5699768,-0.16873455,0
0.022262573,1.5196991,-0.07776165,0
-0.049560547,1.4514618,0.045544624,0
0.05458069,1.5615997,-0.062197685,0
0.13957214,1.6238403,-0.09212017,0
0.10964966,1.5735626,-0.023882866,0
0.053390503,1.4143524,-0.078951836,0
0.13719177,1.5831451,-0.17711163,0
0.06535339,1.5998993,0.009625435,0
-0.05076599,1.4502563,0.067090034,0
0.08929443,1.5843353,-0.1986723,0
0.07972717,1.5915222,-0.112475395,0
0.023452759,1.5675812,-0.009524345,0
-0.0028686523,1.5508118,-0.0945158,0
0.09289551,1.6130676,-0.035861015,0
0.047409058,1.5424347,0.059903145,0
0.022262573,1.416748,-0.09930706,0
0.1503601,1.6405945,-0.2429533,0
0.037826538,1.5915222,0.059903145,0
-0.026824951,1.5759583,5.8174133E-5,0
-0.024429321,1.507721,-0.09691143,0
0.045013428,1.6118774,-0.15437603,0
-0.033996582,1.5364532,0.02998066,0
0.055786133,1.5328674,-0.10409832,0
0.12281799,1.5987091,-0.06338787,0
0.13479614,1.5424347,-0.043047905,0
0.06535339,1.5544128,-0.12922955,0
0.10725403,1.5101166,-0.090929985,0
0.14796448,1.6070862,-0.009524345,0
0.06774902,1.4933624,0.05631733,0
0.08570862,1.5663757,-0.18190289,0
-0.06991577,1.4754028,-0.050219536,0
0.021072388,1.6226501,-0.10409832,0
-0.09385681,1.5747681,0.002453804,0
0.05458069,1.6142731,-0.088534355,0
0.060577393,1.5268707,-0.0011472702,0
0.201828,1.5927124,-0.11128521,0
0.10606384,1.4107513,-0.0011472702,0
0.09529114,1.4155426,-0.12683392,0
0.06655884,1.5903168,-0.035861015,0
0.037826538,1.6525726,0.016812325,0
0.019866943,1.5915222,-0.0035429,0
-0.007659912,1.4981537,-0.19267559,0
0.015075684,1.5268707,-0.18669415,0
-0.007659912,1.5149078,0.035962105,0
0.0713501,1.5783539,0.03716755,0
0.043807983,1.507721,0.02279377,0
0.13240051,1.6094818,-0.17113018,0
0.042617798,1.5352631,-0.119662285,0
0.12402344,1.5244904,-0.13762188,0
-0.014846802,1.3939972,0.105389595,0
0.14317322,1.5364532,-0.093325615,0
0.08570862,1.4825897,-0.0047330856,0
0.1503601,1.5759583,-0.19986248,0
0.046203613,1.5029297,-0.015505791,0
0.11323547,1.6166534,-0.102892876,0
-0.025619507,1.5268707,0.093426704,0
0.05697632,1.5065308,-0.09212017,0
0.027053833,1.5520172,-0.064593315,0
0.046203613,1.555603,-0.055010796,0
0.003112793,1.5675812,-0.09691143,0
0.009094238,1.5149078,-0.059802055,0
0.06895447,1.6154633,-0.035861015,0
0.047409058,1.5460358,0.02998066,0
0.16352844,1.5292664,-0.114871025,0
0.15753174,1.5376587,-0.14479351,0
0.17430115,1.5448303,-0.04902935,0
0.058181763,1.5651855,-0.028674126,0
-0.008865356,1.476593,-0.028674126,0
0.005508423,1.5843353,-0.124453545,0
0.011489868,1.5508118,-0.047839165,0
0.05218506,1.571167,-0.038256645,0
0.029449463,1.5388489,-0.062197685,0
0.10845947,1.5484314,-0.07297039,0
0.10606384,1.5855408,-0.06338787,0
0.12281799,1.4670258,0.03716755,0
0.17430115,1.5807495,-0.10409832,0
0.15513611,1.5448303,-0.107684135,0
0.09768677,1.5232849,-0.04902935,0
-0.0040740967,1.476593,0.0036439896,0
0.0066986084,1.5771484,-0.07536602,0
-0.060333252,1.5855408,-0.05621624,0
-0.090270996,1.4347076,0.04194355,0
0.047409058,1.6142731,-0.19627666,0
0.10127258,1.6214447,-0.09691143,0
0.07972717,1.5603943,0.009625435,0
0.10006714,1.4634247,-0.098116875,0
0.2090149,1.6046906,-0.14239788,0
0.08570862,1.5460358,0.03237629,0
0.09768677,1.500534,-0.05382061,0
0.13000488,1.6070862,-0.11366558,0
0.10006714,1.5579987,-0.011919975,0
0.024658203,1.5460358,0.002453804,0
0.07493591,1.495758,-0.0657835,0
0.10845947,1.6118774,-0.064593315,0
-0.030410767,1.4837799,0.004834175,0
0.07014465,1.571167,-0.17352581,0
0.08929443,1.5663757,-0.078951836,0
0.14196777,1.555603,-0.076556206,0
0.05218506,1.555603,-0.040652275,0
0.09049988,1.5328674,-0.098116875,0
0.050994873,1.5998993,-0.009524345,0
0.039016724,1.500534,0.007229805,0
0.08570862,1.5975037,-0.16514874,0
0.010284424,1.4885712,-0.0035429,0
0.12042236,1.5615997,-0.033465385,0
0.039016724,1.5292664,-0.033465385,0
0.08929443,1.5927124,-0.15796185,0
0.003112793,1.5831451,-0.04423809,0
0.08570862,1.586731,-0.04902935,0
0.04978943,1.5855408,-0.04663372,0
0.046203613,1.5340576,-0.08015728,0
0.055786133,1.6082764,-0.090929985,0
0.11802673,1.7375641,-0.0322752,0
0.10845947,1.7914429,0.02758503,0
0.04978943,1.7830505,-0.19986248,0
0.13719177,1.883606,-0.30520916,0
-0.031600952,1.7112274,-0.064593315,0
0.030639648,1.7088318,-0.05382061,0
0.08691406,1.768692,-0.10170269,0
0.18386841,1.87883,-0.16994,0
-0.03878784,1.6417999,0.076672554,0
0.14317322,1.760315,-0.2609129,0
0.046203613,1.7016602,0.16524982,0
0.05697632,1.7639008,-0.00833416,0
0.018676758,1.6597595,0.0036439896,0
0.14675903,1.8165741,-0.31717205,0
-0.09265137,1.5663757,0.12695026,0
0.18386841,1.5412445,-0.24895,0
0.26527405,1.8261566,-0.24655437,0
0.19464111,1.689682,0.17004108,0
-0.029205322,1.6908875,-0.13641644,0
0.011489868,1.5208893,0.03956318,0
0.06416321,1.7986145,-0.40576458,0
-0.014846802,1.5987091,0.20116901,0
0.07254028,1.626236,-0.20704937,0
0.0066986084,1.5987091,0.043148994,0
0.08810425,1.5149078,0.07067585,0
0.08331299,1.8189697,-0.29443645,0
0.08331299,1.6489868,0.03477192,0
0.08570862,1.6154633,-0.3111906,0
0.05937195,1.5903168,0.04194355,0
0.1910553,1.571167,0.11378193,0
0.18507385,1.7734833,-0.11128521,0
0.08331299,1.5232849,-0.01790142,0
0.11444092,1.5256805,-0.50392437,0
-0.05316162,1.5675812,-0.04423809,0
-0.05316162,1.4837799,0.17483234,0
-0.005264282,1.8093872,0.02998066,0
-0.025619507,1.6609497,0.31489277,0
0.15992737,1.5639801,-0.3471098,0
0.16830444,1.7088318,-0.35667706,0
0.16590881,1.5388489,-0.100497246,0
0.010284424,1.689682,-0.16754436,0
-0.27700806,1.5615997,0.2705965,0
-0.12857056,1.5029297,-0.18789959,0
0.05458069,1.6286316,-0.08494854,0
0.12760925,1.5208893,0.14130878,0
0.18147278,1.689682,-0.25732708,0
-0.0028686523,1.6872864,0.091031075,0
0.1048584,1.4801941,-0.24534893,0
0.10127258,1.571167,-0.26928997,0
-0.056747437,1.4861755,0.295743,0
-0.03878784,1.6477814,-0.107684135,0
-0.012451172,1.744751,0.086239815,0
0.003112793,1.4143524,-0.071780205,0
0.011489868,1.5065308,-0.3578825,0
0.0019073486,1.5568085,0.2717867,0
0.041412354,1.7064362,-0.22500896,0
-0.063934326,1.7579193,-0.3004179,0
-0.11898804,1.4347076,-0.010714531,0
-0.051956177,1.5675812,-0.064593315,0
-0.028015137,1.6453857,0.38073444,0
0.1048584,1.6382141,-0.07057476,0
0.09289551,1.6717224,-0.39378643,0
0.06295776,1.4347076,-0.19986248,0
0.036621094,1.5256805,-0.36386395,0
-0.039993286,1.5436401,0.3579836,0
0.0821228,1.5759583,0.17004108,0
0.08451843,1.7028503,-0.16156292,0
0.055786133,1.4335022,-0.016711235,0
0.058181763,1.4993439,-0.5350523,0
-0.07948303,1.5520172,0.06350422,0
-0.05316162,1.5603943,0.2634096,0
-0.07710266,1.7315826,-0.062197685,0
0.053390503,1.468216,0.033566475,0
0.1335907,1.4825897,-0.42491436,0
0.09648132,1.476593,-0.023882866,0
0.17190552,1.6142731,-0.074160576,0
0.007904053,1.8189697,-0.24176311,0
-0.09864807,1.4466705,0.24784565,0
-0.09625244,1.4502563,-0.1914854,0
-0.042373657,1.516098,0.1341219,0
0.07374573,1.6214447,0.019207954,0
0.034240723,1.7627106,-0.26809978,0
0.09169006,1.500534,-0.02987957,0
-0.026824951,1.5041351,-0.37463665,0
-0.066329956,1.4107513,0.21194172,0
0.003112793,1.5891266,0.10180378,0
0.017471313,1.7866516,-0.17473125,0
0.012680054,1.5244904,-0.17473125,0
-0.06752014,1.5268707,-0.5757475,0
-0.1237793,1.4263153,0.26580524,0
-0.12138367,1.6130676,0.5818453,0
-0.063934326,1.6980591,0.008435249,0
0.1108551,1.4849854,-0.34112835,0
0.061767578,1.5603943,-0.70624065,0
0.003112793,1.4730072,0.30172443,0
0.018676758,1.7004547,0.07786274,0
-0.059143066,1.7004547,-0.066988945,0
-0.032806396,1.4945526,-0.23936749,0
-0.10821533,1.5292664,-0.1412077,0
0.0019073486,1.4634247,0.1796236,0
0.08929443,1.7004547,-0.2704954,0
-0.090270996,1.6956635,0.122159004,0
-0.06871033,1.5352631,-0.05621624,0
-0.08547974,1.6034851,-0.107684135,0
0.06416321,1.5328674,-0.02029705,0
0.12402344,1.7507324,-0.27289104,0
-0.037597656,1.6465912,0.019207954,0
0.018676758,1.492157,-0.26928997,0
-0.04597473,1.5987091,-0.019106865,0
0.06416321,1.5831451,0.19279194,0
0.11802673,1.7734833,-0.11845684,0
0.045013428,1.6609497,-0.07297039,0
0.045013428,1.5412445,-0.2704954,0
-0.06272888,1.6753235,0.057507515,0
0.06655884,1.7028503,0.15568256,0
0.15753174,1.8883972,-0.31479168,0
-0.005264282,1.8141785,-0.15077496,0
-0.07589722,1.6800995,-0.13043499,0
-0.13215637,1.823761,0.12574482,0
0.05218506,1.839325,0.35200214,0
0.14915466,1.9985352,-0.10888958,0
0.31555176,1.9554443,-0.5434294,0
0.38497925,1.7818604,-0.5530119,0
0.25091553,1.8656616,-0.10170269,0
0.3466797,2.0033264,0.23707294,0
0.46878052,1.9398804,-0.15916729,0
0.33351135,2.0128937,-0.20584393,0
0.4256897,1.8967743,-0.2034483,0
0.4831543,1.6968689,-0.13881207,0
0.32632446,2.0200806,-0.02508831,0
0.5442047,2.1038818,-0.07297039,0
0.48075867,1.8046112,0.079068184,0
0.21020508,2.0224762,-0.12922955,0
0.577713,1.9410706,-0.55780315,0
0.46279907,1.6429901,-0.0047330856,0
0.10366821,2.0368347,0.086239815,0
0.52983093,2.1649323,-0.3698454,0
0.41731262,1.7495422,-0.19388103,0
-0.08068848,1.9291077,-0.098116875,0
0.5477905,2.0979004,-0.26928997,0
0.36582947,1.8500977,0.29095173,0
-0.16807556,1.8548889,0.17243671,0
0.58969116,2.1781006,-0.45364666,0
0.37420654,2.1230316,0.01800251,0
0.08570862,1.7722778,-0.13043499,0
0.38497925,2.0464172,-0.2321806,0
0.39216614,2.2343597,-0.34112835,0
0.19345093,1.9686127,-0.3004179,0
0.22337341,1.7878418,0.15208149,0
0.25808716,2.3121796,-0.107684135,0
0.13000488,1.9518433,-0.20225811,0
0.1802826,1.7411652,0.0539217,0
0.34786987,2.2140198,0.0012483597,0
0.20301819,2.1062775,-0.19388103,0
0.1503601,1.8728333,-0.11606121,0
0.2820282,2.0152893,-0.019106865,0
0.23654175,2.167328,-0.31000042,0
0.09887695,1.997345,-0.28126812,0
0.21141052,1.9698029,-0.14958477,0
0.33709717,2.1302185,-0.31239605,0
0.15274048,2.065567,-0.17473125,0
0.21020508,1.8812256,0.2670107,0
0.38139343,2.021286,0.069485664,0
0.3574524,2.1014862,-0.16754436,0
0.20063782,1.947052,-0.18190289,0
0.30477905,2.0392303,-0.21184063,0
0.30596924,2.1697235,-0.076556206,0
0.1515503,2.1110687,-0.17473125,0
0.2892151,1.9997253,-0.20465374,0
0.43286133,2.0739594,-0.293231,0
0.30358887,2.0799408,-0.08255291,0
0.32992554,2.1074677,-0.2429533,0
0.3383026,2.1170502,-0.093325615,0
0.3323059,2.1661224,-0.014315605,0
0.34786987,2.1960602,-0.20106792,0
0.36463928,2.208023,-0.076556206,0
0.3861847,2.1888733,5.8174133E-5,0
0.28442383,2.184082,0.014416695,0
0.3095703,2.167328,-0.29204082,0
0.17070007,2.0356445,-0.10649395,0
0.2197876,2.0679626,-0.13762188,0
0.32632446,2.1493683,-0.22140789,0
0.23535156,2.2762604,-0.4081602,0
0.25689697,2.199646,-0.12564373,0
0.18267822,2.1960602,0.069485664,0
0.16711426,2.2379608,-0.16156292,0
0.058181763,2.1864777,-0.3291502,0
0.0761261,2.124237,-0.21661663,0
0.08691406,2.2511292,-0.110079765,0
0.0019073486,2.2774658,-0.08015728,0
0.16113281,2.223587,-0.1986723,0
0.2892151,2.2367554,-0.14958477,0
0.30119324,2.2008514,-0.023882866,0
0.26646423,2.2619019,-0.28366375,0
0.20541382,2.2128143,-0.10170269,0
0.25091553,2.349289,-0.18429852,0
0.27485657,2.3133698,-0.23578167,0
0.162323,2.4223022,-0.3399229,0
0.22218323,2.3935852,-0.39499187,0
0.18507385,2.409134,-0.090929985,0
0.24014282,2.4654083,-0.15916729,0
0.12879944,2.5587769,-0.20823956,0
0.16352844,2.5228577,-0.20823956,0
0.045013428,2.512085,-0.12922955,0
0.17788696,2.5779266,-0.00593853,0
0.10725403,2.7694702,-0.16035748,0
0.20063782,2.6533508,-0.2321806,0
0.012680054,2.488144,0.088635445,0
0.24014282,2.5144806,-0.18310833,0
0.16590881,2.7395477,-0.29204082,0
0.35505676,2.5659637,-0.3506956,0
0.23414612,2.397171,-0.03467083,0
0.5884857,2.5719452,-0.43210125,0
0.49032593,2.7658691,-0.45125103,0
0.5765228,2.3241425,-0.49196148,0
0.419693,2.2451324,-0.14839458,0
0.52264404,2.191269,-0.09930706,0
0.41131592,2.2810516,-0.34829998,0
0.16950989,1.823761,0.28974628,0
0.32273865,1.8883972,-0.21063519,0
0.18147278,1.9099426,0.33643818,0
0.3095703,1.9279022,-0.24534893,0
0.09049988,1.8967743,0.36517048,0
0.3323059,1.9362793,0.1688509,0
0.14915466,2.1230316,0.15926838,0
0.3215332,2.0559998,0.01560688,0
0.2592926,2.1266174,-0.07057476,0
0.3682251,2.124237,-0.14000225,0
0.35864258,2.3672485,-0.5937071,0
0.36941528,2.3217468,-0.6763029,0
0.33470154,2.326538,-0.5494108,0
0.40293884,2.3504791,-0.26928997,0
0.459198,2.436676,-0.28605938,0
0.48434448,2.37323,-0.3111906,0
0.46878052,2.254715,-0.36746502,0
0.43167114,2.2511292,-0.11128521,0
0.21141052,2.285843,-0.045443535,0
0.09529114,2.369629,-0.05861187,0
0.10606384,2.2606964,0.074276924,0
0.29042053,2.2930145,-0.26451397,0
0.47357178,2.4163208,-0.55061626,0
0.6710968,2.5563812,-0.7481413,0
0.72016907,2.5372314,-0.26689434,0
0.85543823,2.5683594,0.008435249,0
0.9763489,2.615036,0.22869587,0
0.8961487,2.5456085,0.42263508,0
0.86143494,2.5132904,0.17722797,0
0.7716522,2.6820831,-0.1986723,0
0.56095886,2.7144012,-0.3794279,0
0.5825043,2.7395477,-0.3650694,0
0.5453949,2.8508759,-0.29683208,0
0.5956726,2.9502258,-0.41653728,0
0.6531372,2.9885406,-0.37823772,0
0.6818695,2.843689,-0.5314665,0
0.68066406,2.8149567,-0.38540936,0
0.61602783,2.7910156,-0.20465374,0
0.5705414,2.7946014,-0.26451397,0
0.52264404,2.741928,-0.32556438,0
0.5130768,2.6820831,-0.45843792,0
0.4376526,2.615036,-0.32435894,0
0.4472351,2.5408173,-0.071780205,0
0.56933594,2.5336456,0.18919086,0
0.6507416,2.4809723,0.13772297,0
0.70700073,2.3911896,0.074276924,0
0.7333374,2.2906342,0.15806293,0
0.83509827,2.3145752,0.19039631,0
0.91290283,2.4235077,0.09223652,0
0.9212799,2.4546356,-0.31956768,0
0.8590393,2.436676,-0.6116667,0
0.7872162,2.4953308,-0.66434,0
0.7943878,2.6018677,-0.5889158,0
0.7824249,2.5923004,-0.5278654,0
0.8279114,2.622223,-0.51829815,0
0.8195343,2.500122,-0.50632,0
0.80397034,2.483368,-0.25134563,0
0.72377014,2.3840027,0.16166401,0
0.59687805,2.3516846,0.3280611,0
0.493927,2.29422,0.34481525,0
0.47117615,2.2104187,0.17602253,0
0.43406677,2.1421814,-0.0945158,0
0.46878052,2.072754,-0.31598186,0
0.60046387,2.1266174,-0.42491436,0
0.74890137,2.1062775,-0.35190105,0
0.97276306,2.1182404,-0.38301373,0
1.1283875,2.0931091,-0.3973875,0
1.2265472,2.0380402,0.019207954,0
1.4851227,2.029663,-0.122057915,0
1.4994812,2.1972504,-0.42491436,0
1.3510437,2.0739594,-0.37224102,0
1.3211212,2.0200806,-0.23099041,0
1.3342896,2.1852875,0.11855793,0
1.3606262,2.3361206,0.2813692,0
1.2780151,2.4534302,-0.2034483,0
1.1044464,2.594696,-0.37105083,0
0.87220764,2.55159,-0.39618206,0
0.7704468,2.2822418,-0.5159025,0
0.86383057,2.2559052,-0.49794292,0
1.1595154,2.3073883,-0.2321806,0
1.4168854,2.3229523,-0.08494854,0
1.5162506,2.1505737,0.19877338,0
1.5054779,2.2247925,0.20954609,0
1.3067474,2.1218414,0.33643818,0
0.99909973,1.8860016,0.42861652,0
0.6459503,1.626236,0.24306965,0
0.5442047,1.531662,-0.15677166,0
0.46040344,1.4706116,-0.30879498,0
0.4185028,1.2383728,-0.17592144,0
0.41610718,1.1856995,-0.16994,0
0.41610718,1.1821136,0.062298775,0
0.4472351,1.0719757,0.27657795,0
0.6136322,1.0408478,0.088635445,0
0.76446533,1.1653595,-0.10649395,0
0.72854614,1.1928864,-0.013110161,0
0.72016907,1.1342316,-0.14839458,0
0.76686096,1.0863495,-0.253726,0
0.87220764,1.1677399,-0.41414165,0
1.0338135,1.3580933,-0.44168377,0
1.3546295,1.4706116,-0.36146832,0
1.4444122,1.3712616,-0.3219633,0
1.3666077,1.3066101,-0.3794279,0
1.3282928,1.2659149,-0.17113018,0
1.3151245,1.1545715,0.062298775,0
1.166687,1.2012634,0.2203188,0
0.94163513,1.3568878,0.24665546,0
0.790802,1.3269653,0.23588276,0
0.6339874,1.3257599,0.34481525,0
0.55137634,1.3054199,0.36396503,0
0.50109863,1.3520966,-0.209445,0
0.48075867,1.437088,-0.41774273,0
0.6244049,1.4287109,-0.624835,0
0.74531555,1.3473053,-0.25732708,0
0.94163513,1.1928864,0.20475483,0
1.4061127,1.3892059,-0.2824583,0
1.3330841,1.3963928,-0.17473125,0
1.1307831,1.1725311,-0.21782207,0
1.197815,1.1629639,-0.31358624,0
1.197815,1.4119568,-0.21303082,0
1.1343689,1.4490662,-0.05861187,0
1.1403503,1.3078003,0.05871296,0
1.0733185,1.3449249,-0.07536602,0
0.7728424,1.3090057,0.13891315,0
0.6028595,1.1437988,0.3855257,0
0.5705414,1.1976776,0.13891315,0
0.41610718,1.3676605,-0.074160576,0
0.27963257,1.2623138,0.04194355,0
0.22097778,1.2491455,-0.14718914,0
0.21141052,1.3892059,-0.28006268,0
0.26287842,1.2718964,-0.02987957,0
0.44004822,1.2120361,0.05631733,0
0.8374939,1.3497009,0.08744526,0
0.99549866,1.4550476,0.103009224,0
0.9571991,1.3700562,-0.057406425,0
0.9141083,1.432312,-0.42251873,0
0.7082062,1.4634247,-0.24415874,0
0.61961365,1.3401337,-0.062197685,0
0.8267212,1.2910461,-0.052615166,0
0.97994995,1.4658203,0.019207954,0
0.8913574,1.5328674,0.064694405,0
0.8805847,1.5675812,-0.098116875,0
0.75608826,1.6034851,0.07546711,0
0.60046387,1.6453857,-0.033465385,0
0.57173157,1.6777191,-0.09212017,0
0.6674957,1.8022156,-0.24895,0
0.72854614,1.9159393,-0.22859478,0
0.7656555,1.947052,-0.21661663,0
0.76686096,2.0009308,-0.10409832,0
0.86860657,2.060791,-0.0370512,0
0.79678345,2.1146545,-0.052615166,0
0.6758728,2.1577454,-0.21303082,0
0.5597687,2.0667725,-0.26451397,0
0.5250397,2.0787354,-0.0657835,0
0.6998291,2.0883179,0.057507515,0
0.8494568,1.9793854,-0.07057476,0
0.8171387,1.6226501,-0.20704937,0
0.79559326,1.313797,-0.38540936,0
0.7213745,0.903183,-0.043047905,0
0.8386841,0.73799133,-0.19388103,0
0.86383057,1.164154,0.057507515,0
0.9583893,1.3604736,0.2023592,0
0.90452576,1.4801941,0.033566475,0
0.9787445,1.5627899,-0.095721245,0
0.845871,1.6633453,-0.22261333,0
0.81355286,1.9350891,-0.44526958,0
0.8003845,2.4953308,-0.42491436,0
0.83509827,2.8568573,-0.3866148,0
0.7979889,2.8005981,-0.5135069,0
0.948822,2.5647583,-0.30520916,0
1.1690826,2.3672485,-0.36027813,0
1.2983704,1.9997253,-0.23338604,0
0.8889618,1.2132416,0.20475483,0
0.7225647,0.9199524,-0.11366558,0
0.55137634,1.0671844,0.23946857,0
0.60046387,1.3233643,0.04913044,0
0.50349426,1.4406891,0.2203188,0
0.6387634,1.947052,-0.14360332,0
0.60046387,2.421112,-0.0610075,0
0.7333374,2.6629333,-0.27408123,0
0.6926422,2.7383423,-0.1807127,0
0.7764435,2.6162415,-0.23338604,0
0.8051605,2.3217468,-0.13641644,0
0.8662262,2.0715637,-0.16994,0
0.909317,1.8345337,-0.22380352,0
0.7872162,1.5220947,0.10419941,0
0.79319763,1.4646301,-0.059802055,0
0.7106018,1.6848907,0.067090034,0
0.79678345,1.8608704,-0.22978497,0
0.73573303,1.9793854,-0.22140789,0
0.95121765,2.3169708,-0.46083355,0
0.9308624,2.4713898,-0.16873455,0
1.0733185,2.388794,-0.0945158,0
1.0565643,2.366043,-0.17233562,0
1.0553589,2.3205566,-0.23099041,0
0.9069214,2.2176056,-0.14839458,0
0.8482666,2.1110687,0.12095356,0
0.91171265,2.1278229,0.1341219,0
0.97395325,2.2619019,0.009625435,0
1.1044464,2.1781006,-0.066988945,0
1.2480927,2.148178,-0.27528667,0
1.2361298,2.1302185,-0.41055584,0
1.3534393,2.1709137,-0.4775877,0
1.3929443,2.129013,-0.25612164,0
1.5090637,2.1804962,-0.08255291,0
1.39534,2.3516846,-0.045443535,0
1.1966248,2.2642975,-0.055010796,0
1.0529633,2.208023,0.004834175,0
0.869812,2.1350098,0.13651752,0
0.8877716,2.2427368,-0.12922955,0
0.9081116,2.2451324,-0.3866148,0
0.9583893,2.1649323,-0.6367979,0
0.964386,2.1230316,-0.33513165,0
1.0421906,2.1960602,-0.27647686,0
1.1583099,2.2954102,-0.24895,0
1.1642914,2.3205566,-0.36027813,0
1.0661316,2.3169708,-0.40576458,0
0.9823303,2.3121796,-0.08732891,0
1.0326233,2.3073883,-0.19027996,0
1.048172,2.2834473,0.082654,0
1.151123,2.3552704,0.050335884,0
1.2469025,2.3552704,-0.102892876,0
1.1966248,2.3038025,-0.17352581,0
1.0350037,2.163742,0.02758503,0
1.05896,2.1709137,-0.015505791,0
1.1128235,2.2523193,-0.22859478,0
1.087677,2.1433868,-0.22619915,0
1.2504883,2.1397858,-0.25612164,0
1.3677979,2.3241425,-0.293231,0
1.1954193,2.3038025,-0.04423809,0
1.1786652,2.151764,0.0036439896,0
1.1128235,2.2283783,-0.088534355,0
1.0960693,2.2116241,0.016812325,0
1.0912781,2.1014862,-0.2429533,0
1.087677,1.8285522,-0.23457623,0
1.087677,1.6561584,-0.288455,0
1.0050812,1.5639801,-0.0610075,0
1.2253418,1.4670258,0.007229805,0
1.3677979,1.5340576,-0.16035748,0
1.3510437,1.5998993,-0.33513165,0
1.3354797,1.5256805,-0.29683208,0
1.3869629,1.5340576,-0.11606121,0
1.4264679,1.7399597,0.07546711,0
1.5665283,1.8500977,0.012021065,0
1.616806,1.8572845,-0.08972454,0
1.5665283,1.7878418,-0.078951836,0
1.6036377,1.6525726,-0.010714531,0
1.6682739,1.511322,-0.12922955,0
1.7269287,1.3796387,-0.1627531,0
1.8167114,1.2623138,-0.19986248,0
1.8646088,1.2395782,-0.05142498,0
1.8227081,1.2168274,0.05152607,0
1.7077789,1.2802734,0.14370441,0
1.5162506,1.3796387,0.16524982,0
1.3821716,1.4969482,0.033566475,0
1.2600708,1.5208893,-0.12803936,0
1.1295776,1.4969482,-0.15556622,0
1.019455,1.3676605,-0.19986248,0
0.93325806,1.3281555,-0.18429852,0
0.885376,1.3221741,-0.08732891,0
0.8267212,1.3437195,-0.21423626,0
0.7620697,1.3233643,-0.11845684,0
0.8099518,1.3018188,-0.086138725,0
0.89494324,1.313797,-0.15796185,0
0.94044495,1.3461151,-0.013110161,0
1.067337,1.432312,-0.19027996,0
1.1631012,1.397583,-0.100497246,0
1.2720337,1.3197784,-0.13762188,0
1.3306885,1.3305511,-0.08494854,0
1.3785858,1.3700562,0.05631733,0
1.3271027,1.5747681,-0.035861015,0
1.2588654,1.7088318,-0.2992277,0
1.0410004,1.7196045,-0.30639935,0
0.8710022,1.7818604,-0.3219633,0
0.76805115,1.9111481,-0.20106792,0
0.7884064,1.9793854,-0.100497246,0
0.95240784,1.9769897,-0.0610075,0
1.0972595,1.8417206,-0.18669415,0
1.1008453,1.6813049,-0.21423626,0
1.0517731,1.4981537,0.04433918,0
1.0469818,1.5125122,0.31489277,0
0.9931183,1.6525726,0.16524982,0
0.9284668,1.7734833,-0.22380352,0
0.86502075,1.6884918,-0.26570415,0
0.83509827,1.7256012,-0.11128521,0
0.9272766,1.8919983,-0.03467083,0
1.0924683,2.026062,0.100613594,0
1.2888031,2.0703583,-0.04663372,0
1.3306885,2.0464172,-0.21184063,0
1.2349243,1.947052,-0.42851543,0
1.1259918,1.8034058,-0.33513165,0
1.1200104,1.7220001,-0.1627531,0
1.2157745,1.6872864,-0.20225811,0
1.2816162,1.6848907,-0.31598186,0
1.3450623,1.6094818,-0.17950726,0
1.2684479,1.5759583,0.110180855,0
1.2121887,1.6824951,0.10419941,0
1.1547241,1.8058014,-0.15077496,0
1.0613403,1.8129883,-0.31000042,0
0.95240784,1.8177795,-0.3578825,0
1.0373993,1.9302979,-0.50632,0
1.0948639,1.9302979,-0.34471416,0
1.2816162,1.8955841,-0.16035748,0
1.3917389,1.8692474,-0.17352581,0
1.39534,1.7902374,-0.11606121,0
1.3294983,1.6561584,-0.23457623,0
1.2636566,1.4993439,-0.15796185,0
1.1571198,1.5304718,-0.14718914,0
1.0230408,1.6633453,-0.40576458,0
0.8985443,1.6429901,-0.293231,0
0.85305786,1.5891266,0.04673481,0
0.8961487,1.7399597,0.069485664,0
0.909317,1.7543335,0.14370441,0
0.830307,1.6573639,-0.117266655,0
0.64115906,1.6094818,-0.36267376,0
0.5837097,1.4993439,-0.44168377,0
0.6651001,1.4574432,-0.36146832,0
0.97395325,1.5436401,-0.40576458,0
1.2421112,1.6789093,-0.5350523,0
1.3941345,1.5723724,-0.2609129,0
1.5497589,1.4239197,-0.08015728,0
1.6491241,1.4622345,0.16524982,0
1.5617371,1.397583,0.26580524,0
1.4276581,1.3233643,0.20475483,0
1.230133,1.4227295,-0.06817913,0
0.92248535,1.5268707,-0.209445,0
0.7812195,1.3916016,-0.23936749,0
0.7297516,1.3640747,-0.22978497,0
0.85424805,1.2419739,0.30531025,0
1.0373993,1.140213,0.69915485,0
1.1487274,1.0097351,0.8631563,0
1.1379547,1.0600128,0.30531025,0
1.024231,1.0899353,-0.05621624,0
0.99191284,0.9594574,-0.02748394,0
1.1547241,1.076767,0.19996357,0
1.2804108,1.3712616,0.43818378,0
1.3977356,1.4598389,0.40946674,0
1.4025269,1.3676605,0.59740925,0
1.3342896,1.1485901,0.8883028,0
1.2899933,1.0839539,0.845212,0
1.3294983,1.0264893,0.5962038,0
1.4599762,1.1258545,0.25742817,0
1.5198364,1.0863495,0.6213503,0
1.7484894,1.1665497,0.45734882,0
2.0262146,1.3604736,0.20356464,0
2.190216,1.4646301,-0.119662285,0
2.1016235,1.3844147,-0.2704954,0
2.2093658,1.234787,-0.41774273,0
2.2093658,1.195282,-0.17950726,0
2.0465546,1.2048645,-0.38063335,0
1.7664337,1.3808289,-0.7912321,0
1.4216766,1.437088,-0.7517271,0
1.1128235,1.507721,-0.6224394,0
1.0002899,1.6513824,-0.73855877,0
0.97276306,1.8991699,-1.016284,0
0.8877716,2.0871277,-0.9971342,0
0.80397034,2.1146545,-0.86186504,0
0.71777344,2.0871277,-0.7660856,0
0.7884064,2.021286,-0.69546795,0
0.7584839,1.7256012,-0.52907085,0
0.6543274,1.4670258,-0.67869854,0
0.6136322,1.4047699,-0.3973875,0
0.6220093,1.2946472,0.04913044,0
0.6112366,1.5292664,-0.06338787,0
0.68666077,1.9374847,-0.08732891,0
0.7501068,1.9434662,-0.31239605,0
0.79678345,1.6609497,-0.21423626,0
1.1798553,1.4981537,0.4872713,0
1.735321,1.6082764,0.2634096,0
2.1123962,1.7459412,0.37473774,0
2.2524567,1.586731,0.7195101,0
2.4882965,1.4239197,0.78893757,0
2.6654663,1.408371,0.8188753,0
2.691803,1.3413239,0.6788149,0
2.6750336,1.2180176,0.32207966,0
2.509842,1.2276001,0.15806293,0
2.4822998,1.0971222,0.26101398,0
2.3027344,1.0803528,0.07786274,0
2.296753,1.1138763,-0.14839458,0
2.2859802,1.0552216,-0.36146832,0
2.3099213,0.82058716,-0.18429852,0
2.1339417,0.7978363,0.13293171,0
1.9915009,0.9199524,0.14251423,0
1.7389069,0.9917755,-0.010714531,0
1.2899933,1.0157166,-0.14360332,0
0.92607117,1.0145111,-0.3363371,0
0.82551575,0.9091797,-0.29443645,0
0.74531555,0.9391022,-0.3219633,0
0.77523804,1.0887451,-0.4763975,0
0.9105072,1.1437988,-0.466815,0
1.0517731,1.164154,-0.3183775,0
1.23732,1.234787,-0.2788725,0
1.4085083,1.3114014,-0.21063519,0
1.4228668,1.2467499,-0.209445,0
1.379776,1.1521912,-0.27289104,0
1.3486481,1.0552216,0.013226509,0
1.3785858,1.0695801,0.07067585,0
1.4264679,1.1785278,0.100613594,0
1.4384308,1.3161926,-0.31717205,0
1.3594208,1.2922516,-0.60208416,0
1.261261,1.100708,-0.24415874,0
1.3534393,0.99057007,0.04673481,0
1.4851227,1.1114807,-0.02029705,0
1.47435,1.1569672,-0.33394146,0
1.3342896,1.2048645,-0.50033855,0
1.2469025,1.2407684,-0.16394329,0
1.2971802,1.3437195,0.1688509,0
1.4611816,1.4275208,0.34362507,0
1.5737,1.4275208,0.062298775,0
1.529419,1.258728,-0.06338787,0
1.3666077,1.2096405,0.0539217,0
1.2780151,1.2216187,0.3065157,0
1.3235168,1.2718964,0.47889423,0
1.403717,1.4837799,0.26221943,0
1.3821716,1.6441956,-0.021502495,0
1.3199158,1.8441162,-0.20225811,0
1.261261,2.084732,-0.18310833,0
1.2133789,2.4199219,-0.02269268,0
1.2899933,2.7155914,0.14370441,0
1.1475372,2.4498444,0.26101398,0
1.0900726,1.9638214,-0.13162518,0
0.9392395,1.6705322,-0.32316875,0
0.83628845,1.0791626,0.17483234,0
0.7596741,0.7786865,0.15926838,0
0.59088135,1.1677399,-0.19027996,0
0.4867401,1.634613,-0.035861015,0
0.43286133,1.7818604,-0.25253582,0
0.2712555,2.1625366,-0.3111906,0
0.22337341,2.582718,-0.17233562,0
0.33111572,2.7287598,-0.2202177,0
0.46998596,2.7443237,-0.45245647,0
0.5884857,2.7275696,-0.48237896,0
0.6651001,2.5659637,-0.3866148,0
0.7692566,2.539627,-0.6152525,0
0.751297,2.4019623,-0.5350523,0
0.711792,2.3085785,-0.4991331,0
0.81355286,2.3085785,-0.28126812,0
0.7728424,2.6162415,-0.31000042,0
0.76446533,2.701233,-0.00833416,0
0.69143677,2.7299652,0.081448555,0
0.6064453,2.8448792,-0.11128521,0
0.5262451,2.8556519,-0.16156292,0
0.48434448,2.8448792,-0.10649395,0
0.55137634,2.9526215,-0.119662285,0
0.5753174,3.0579681,-0.17592144,0
0.6818695,2.9837494,-0.29204082,0
0.63757324,2.7754517,-0.38301373,0
0.49630737,2.6760864,-0.40336895,0
0.42329407,2.61026,-0.064593315,0
0.49990845,2.6329956,0.2670107,0
0.54299927,2.713211,-0.098116875,0
0.31315613,2.8460846,-0.28485394,0
0.09289551,2.7479248,-0.32077312,0
-0.06752014,2.8113708,-0.7481413,0
-0.06871033,2.8544617,-0.57335186,0
0.1443634,2.883194,-0.40217876,0
0.4292755,2.9693909,-0.34350872,0
0.6339874,3.0759277,-0.30401897,0
0.845871,2.9789581,-0.083743095,0
0.96199036,2.8424835,-0.2381773,0
0.9715576,2.7311554,-0.38901043,0
0.8482666,2.6509552,-0.41653728,0
0.7991791,2.6509552,-0.35667706,0
0.78482056,2.7682648,-0.08255291,0
0.8099518,2.8544617,-0.062197685,0
0.8279114,2.9274902,-0.29085064,0
0.7896118,2.8879852,-0.33752728,0
0.69143677,2.9023438,-0.090929985,0
0.7046051,2.8640442,-0.047839165,0
0.6136322,2.9262848,-0.2609129,0
0.5633545,2.8700256,-0.35429668,0
0.4436493,2.836502,-0.48596478,0
0.375412,2.8089752,-0.3758421,0
0.3718109,2.7718658,-0.122057915,0
0.38258362,2.8101654,-0.11128521,0
0.46159363,2.915512,-0.42372417,0
0.29519653,2.9873352,-0.55780315,0
0.17788696,2.8113708,-0.47998333,0
0.12521362,2.8113708,-0.78525066,0
0.037826538,2.819748,-0.4656248,0
0.16950989,2.8269348,-0.2716856,0
0.30119324,2.8341064,-0.35309124,0
0.34547424,2.8652344,-0.122057915,0
0.31315613,2.9035492,-0.13283062,0
0.25450134,2.8951569,-0.25493145,0
0.15873718,2.8401031,-0.7002592,0
0.055786133,2.7431335,-0.63800335,0
0.030639648,2.7706604,-0.2501402,0
0.2712555,2.9250946,-0.13043499,0
0.55018616,3.0160675,0.0036439896,0
0.7405243,3.077118,-0.07297039,0
0.9069214,3.0280457,-0.3076048,0
0.7608795,2.9107208,-0.100497246,0
0.49272156,2.796997,-0.1412077,0
0.3670349,2.8137665,-0.22859478,0
0.24612427,2.819748,-0.36146832,0
0.16352844,2.8927765,-0.27528667,0
0.18267822,3.0400085,-0.29204082,0
0.18865967,3.022049,-0.3578825,0
0.14915466,2.9238892,-0.5254698,0
0.19824219,2.8855896,-0.5601835,0
0.2987976,3.0531769,-0.7026396,0
0.30477905,3.1477509,-0.33873272,0
0.33470154,3.1776733,-0.34231853,0
0.43525696,3.2255707,-0.35309124,0
0.41131592,3.2147827,-0.43928814,0
0.31913757,3.0819092,-0.43449688,0
0.27844238,3.0914917,-0.4955473,0
0.5477905,3.322525,-0.24415874,0
0.30238342,3.247116,-0.26330853,0
0.19943237,3.0471954,-0.0657835,0
0.32392883,3.0867004,0.04194355,0
0.42208862,3.0902863,-0.124453545,0
0.35147095,3.0280457,-0.20823956,0
0.30477905,3.0148773,-0.08732891,0
0.32632446,3.1633148,-0.29683208,0
0.30358887,3.2483063,-0.34231853,0
0.2892151,3.211197,-0.17113018,0
0.46040344,3.322525,-0.18190289,0
0.3861847,3.199234,-0.6068754,0
0.21618652,3.037613,-0.19627666,0
0.2712555,2.8843842,0.18560505,0
0.37062073,3.0280457,-0.29443645,0
0.20301819,3.0424042,-0.33273602,0
-0.008865356,2.7622833,-0.43329144,0
-0.18243408,2.8149567,-0.61885357,0
-0.12138367,2.8819885,-0.31717205,0
0.08091736,2.9729767,-0.26809978,0
0.32632446,3.0819092,-0.29443645,0
0.45681763,3.4147034,-0.53026104,0
0.38258362,3.2375336,-0.0610075,0
0.454422,2.9250946,0.026394844,0
0.42208862,2.843689,-0.3506956,0
0.5094757,2.8951569,-0.22140789,0
0.63757324,2.615036,-0.010714531,0
0.6531372,2.5228577,-0.3219633,0
0.4005432,2.4462433,0.1628542,0
0.30717468,2.1828918,0.4262209,0
0.31913757,1.8500977,0.32207966,0
0.2999878,1.6872864,0.18081379,0
0.3179474,1.3748474,0.12095356,0
0.39097595,1.0504303,-0.25851727,0
0.27246094,1.2096405,-0.46921062,0
0.11204529,1.4646301,-0.08732891,0
0.15634155,1.6298218,-0.069384575,0
0.18386841,1.7315826,-0.059802055,0
0.1910553,1.6525726,0.03477192,0
0.22576904,1.3820343,-0.122057915,0
0.21260071,1.1809082,-0.24895,0
0.17788696,1.0540161,-0.12564373,0
0.25450134,1.1066895,-0.60208416,0
0.27604675,1.4646301,-0.7780638,0
0.3610382,1.4514618,0.1113863,0
0.59088135,1.3030243,0.25144672,0
0.7034149,1.7172089,0.02998066,0
0.7812195,1.6681366,0.100613594,0
0.85305786,1.2946472,-0.32077312,0
0.49272156,1.2276001,-0.16994,0
0.24014282,1.1270447,0.03477192,0
0.2532959,1.0923309,0.2490511,0
0.26766968,1.3640747,0.17123127,0
0.25808716,1.5879364,0.10899067,0
0.2521057,1.468216,0.038357735,0
0.12162781,1.3592834,-0.055010796,0
-0.044769287,1.3221741,0.32566547,0
-0.04118347,1.1581726,0.43220234,0
0.06895447,1.1880951,-0.21423626,0
-0.032806396,1.4119568,-0.5494108,0
-0.036392212,1.2335815,-0.5925169,0
0.07733154,1.2168274,-0.58772564,0
0.3394928,1.4777985,-0.3794279,0
0.5633545,1.555603,0.064694405,0
0.8099518,1.3952026,-0.11366558,0
0.89016724,1.4777985,-0.73974895,0
0.74650574,1.432312,-0.49315166,0
0.6100464,1.2706909,-0.040652275,0
0.5920868,1.3054199,0.31847858,0
0.6758728,1.4694214,0.1401186,0
0.5310364,1.4514618,0.16524982,0
0.38497925,1.2850647,0.22511005,0
0.19824219,1.4299164,0.19517231,0
0.005508423,1.4670258,0.30770588,0
-0.16807556,1.377243,0.27418232,0
-0.17047119,1.3018188,0.2670107,0
-0.017242432,1.2814789,0.23946857,0
0.12521362,1.2683105,-0.023882866,0
0.17070007,1.2754822,-0.34231853,0
0.21020508,1.3520966,-0.34950542,0
0.3323059,1.2060547,-0.23697186,0
0.50709534,1.3257599,-0.39978313,0
0.63038635,1.4227295,-0.25253582,0
0.8374939,1.3413239,-0.59849834,0
0.7261658,1.4406891,-0.5494108,0
0.6136322,1.2359772,-0.14958477,0
0.58969116,1.3712616,-0.38182354,0
0.6064453,1.3963928,-0.06338787,0
0.62680054,1.4107513,-0.16156292,0
0.40174866,1.4849854,-0.23099041,0
0.07733154,1.3437195,0.25384235,0
0.1443634,1.179718,0.27657795,0
0.17070007,1.4215393,-0.014315605,0
0.06895447,1.5292664,-0.02269268,0
0.1503601,1.3401337,0.35439777,0
0.41610718,1.4107513,0.30891132,0
0.49990845,1.4454803,0.36517048,0
0.41252136,1.2766876,0.340024,0
0.6208191,1.2455597,0.2023592,0
0.70939636,1.4622345,0.30770588,0
0.50109863,1.2299957,0.5590944,0
0.414917,1.140213,-0.14479351,0
0.19703674,1.3090057,-0.5673704,0
-0.129776,1.1605682,-0.0035429,0
-0.18243408,1.0695801,0.22390461,0
-0.056747437,1.4586487,-0.30879498,0
0.010284424,1.610672,-0.23338604,0
-0.09625244,1.3987885,0.07067585,0
-0.014846802,1.626236,0.17841816,0
0.19584656,1.9805756,-0.08255291,0
0.34547424,1.9111481,-0.3650694,0
0.4436493,1.4754028,-0.38301373,0
0.46159363,1.3114014,-0.23578167,0
0.60046387,1.0169067,0.7015505,0
0.8087616,1.0097351,0.7733736,0
0.85783386,1.495758,0.4944582,0
0.66270447,1.4741974,0.6022005,0
0.38858032,1.3018188,0.19877338,0
0.11323547,1.2288055,-0.2321806,0
-0.1010437,1.061203,-0.29204082,0
0.030639648,0.93551636,-0.17113018,0
0.29400635,1.2706909,0.059903145,0
0.3383026,1.507721,0.21673298,0
0.40293884,1.4622345,-0.102892876,0
0.46279907,1.4275208,-0.5170927,0
0.34069824,1.4227295,-0.18550396,0
0.38258362,1.1904907,0.3065157,0
0.577713,1.2886505,0.052731514,0
0.45561218,1.4071655,-0.39259624,0
0.07493591,1.2311859,-0.26809978,0
-0.059143066,1.1665497,-0.016711235,0
7.171631E-4,1.4011841,0.06110859,0
0.05458069,1.5639801,-0.112475395,0
0.14077759,1.3497009,-0.28485394,0
0.07254028,1.1078949,-0.014315605,0
-0.06871033,1.0600128,0.2634096,0
-0.06991577,1.140213,0.25144672,0
0.009094238,1.1928864,0.013226509,0
-0.005264282,1.3329468,-0.04902935,0
7.171631E-4,1.3987885,0.1688509,0
0.07972717,1.3509064,0.3783388,0
0.18147278,1.4215393,0.24425983,0
0.17430115,1.4335022,-0.05621624,0
0.21858215,1.2311859,-0.17352581,0
0.27246094,1.1964722,-0.32796,0
0.22816467,1.3628693,-0.21782207,0
0.30358887,1.3401337,-0.38901043,0
0.375412,1.2168274,-0.69546795,0
0.43167114,1.1833038,-0.6906767,0
0.3275299,1.2264099,-0.6236448,0
0.27246094,1.1150818,-0.08255291,0
0.24491882,1.2491455,-0.2274046,0
0.036621094,1.4634247,-0.19388103,0
-0.061538696,1.250351,0.32207966,0
-0.05076599,1.3317566,0.10180378,0
-0.18843079,1.507721,0.12095356,0
-0.31411743,1.2718964,0.15328693,0
-0.32011414,1.3030243,0.057507515,0
-0.06272888,1.6956635,-0.13641644,0
0.10127258,1.8464966,-0.064593315,0
0.12162781,1.9446716,-0.17831707,0
0.15513611,1.7435455,-0.2501402,0
0.12402344,1.2276001,-0.15916729,0
0.13479614,0.9738159,-0.112475395,0
0.041412354,1.061203,0.2526369,0
-0.018432617,1.0049438,0.6572542,0
0.09049988,0.7655182,0.51479816,0
0.10964966,0.60510254,0.12334919,0
0.048599243,0.58595276,-0.43568707,0
-0.025619507,0.8445282,-0.42970562,0
-0.020828247,1.1988678,-0.22140789,0
0.021072388,1.6681366,0.1843996,0
0.17070007,1.6837006,0.35319233,0
0.19224548,1.7327728,-0.39978313,0
0.12760925,1.5855408,-0.40217876,0
-0.14173889,1.1689453,-0.045443535,0
-0.22314453,1.1102905,-0.010714531,0
-0.2207489,1.4861755,-0.30162334,0
0.03543091,1.5532074,-0.1986723,0
0.015075684,1.4825897,-0.052615166,0
-0.14294434,1.4969482,0.0012483597,0
-0.15849304,1.3149872,0.11378193,0
-0.039993286,1.1042938,0.33762836,0
-0.15730286,1.2886505,0.06110859,0
-0.24708557,1.4466705,0.22511005,0
-0.029205322,1.1258545,0.48966694,0
0.19824219,1.0097351,0.22271442,0
0.19703674,0.8924103,0.26101398,0
0.13598633,0.7332001,0.11378193,0
-0.13215637,1.0109253,-0.050219536,0
-0.26623535,1.5089264,-0.01790142,0
-0.22912598,1.6082764,-0.047839165,0
-0.22314453,1.5244904,-0.27528667,0
-0.25427246,1.4023743,-0.84749126,0
-0.2710266,1.2563324,-0.84031963,0
-0.27342224,1.1234589,-0.076556206,0
-0.09625244,1.2766876,0.3065157,0
0.06895447,1.5831451,0.03956318,0
0.06416321,1.373642,-0.26570415,0
-0.061538696,1.2563324,-0.2776823,0
-0.111816406,1.3820343,-0.26211834,0
-0.17047119,1.2718964,-0.0071287155,0
-0.1237793,1.2599182,-0.009524345,0
-0.049560547,1.4011841,0.30291462,0
-0.011260986,1.5508118,0.46691608,0
-0.019638062,1.7172089,-0.27528667,0
-0.13215637,1.5041351,-0.47400188,0
-0.29496765,1.0683899,0.002453804,0
-0.19441223,1.1893005,0.3567934,0
0.06774902,1.5819397,0.5303621,0
0.08691406,1.5520172,0.20715046,0
-0.08547974,1.4454803,-0.71701336,0
-0.14892578,1.3018188,-0.5494108,0
-0.22912598,1.2120361,0.24425983,0
-0.087875366,1.4191437,0.38313007,0
0.19584656,1.6441956,0.27538776,0
0.25808716,1.5232849,-0.46202374,0
0.048599243,1.5436401,-0.77447796,0
-0.16688538,1.4598389,-0.36027813,0
-0.25546265,1.3497009,0.28495502,0
-0.19441223,1.413147,0.34481525,0
-0.08906555,1.6118774,-0.26689434,0
-0.20518494,1.373642,-0.14718914,0
-0.17884827,1.4502563,0.2023592,0
0.034240723,1.4789886,0.23827839,0
0.21260071,1.4502563,-0.35429668,0
0.11923218,1.2683105,-0.5601835,0
0.043807983,1.2359772,-0.4440794,0
-0.04118347,1.5089264,0.119763374,0
-0.007659912,1.9099426,0.18919086,0
0.034240723,2.0224762,-0.28366375,0
-0.014846802,1.4490662,-0.2992277,0
-0.1525116,1.164154,-0.076556206,0
-0.09983826,1.2407684,0.458539,0
0.14196777,1.4993439,0.43938923,0
0.2521057,1.6011047,0.38313007,0
0.2880249,1.5544128,-0.015505791,0
0.19824219,1.4335022,-0.19986248,0
0.162323,1.3497009,-0.22261333,0
0.17788696,1.3916016,0.05631733,0
0.2197876,1.4263153,0.14968586,0
0.39456177,1.6034851,-0.3698454,0
0.34907532,1.6238403,-0.48717022,0
0.32992554,1.495758,-0.43091106,0
0.3323059,1.5184937,-0.24176311,0
0.31913757,1.4993439,0.41186237,0
0.48913574,1.4706116,0.23588276,0
0.50109863,1.4275208,0.1915865,0
0.3682251,1.2826691,-0.010714531,0
0.22816467,1.2886505,0.028775215,0
0.1156311,1.3497009,0.19517231,0
0.18507385,1.4873657,0.052731514,0
0.29519653,1.4382935,0.081448555,0
0.36224365,1.4047699,-0.04663372,0
0.33709717,1.5412445,-0.23099041,0
0.29759216,1.5735626,-0.23697186,0
0.1802826,1.4382935,0.052731514,0
0.20541382,1.5388489,-0.110079765,0
0.18267822,1.5579987,-0.093325615,0
0.031845093,1.3604736,0.06110859,0
-0.10821533,1.2539368,0.22750568,0
-0.2494812,1.3461151,0.043148994,0
-0.33566284,1.3628693,-0.4153471,0
-0.34284973,1.4107513,-0.86186504,0
-0.35003662,1.3904114,-0.7876463,0
-0.174057,1.3437195,-0.35667706,0
0.07014465,1.461029,0.24665546,0
0.36343384,1.4646301,0.41065693,0
0.50709534,1.408371,0.34122944,0
0.32273865,1.3664703,0.36517048,0
0.09529114,1.3125916,0.23467731,0
0.018676758,1.2431641,0.0539217,0
-0.057937622,1.3389282,0.37115192,0
0.09169006,1.4837799,0.36636066,0
0.30836487,1.5568085,-0.35309124,0
0.31196594,1.432312,-0.5554075,0
0.13838196,1.2443542,-0.088534355,0
0.029449463,1.3245697,0.2717867,0
0.13479614,1.5998993,-0.18310833,0
0.06295776,1.5436401,-0.37463665,0
-0.111816406,1.3712616,-0.35667706,0
-0.111816406,1.4119568,-0.05861187,0
0.12879944,1.4107513,-0.102892876,0
0.19824219,1.3497009,-0.49196148,0
0.24612427,1.3616791,-0.6870909,0
0.29042053,1.4347076,-0.0071287155,0
0.2425232,1.5149078,0.74703693,0
0.16950989,1.6549683,0.6393099,0
0.031845093,1.5268707,0.1628542,0
-0.16088867,1.2958374,-0.19027996,0
-0.37039185,1.2335815,-0.052615166,0
-0.34883118,1.4155426,-0.11606121,0
-0.08187866,1.5891266,0.02039814,0
0.19345093,1.7591095,-0.110079765,0
0.30119324,1.6382141,-0.31479168,0
0.29400635,1.5125122,-0.45364666,0
0.24731445,1.447876,0.07546711,0
0.2532959,1.3999786,0.47170734,0
0.27485657,1.5963135,-0.32435894,0
0.18507385,1.6405945,-0.6715269,0
0.1048584,1.3844147,-0.20225811,0
0.12521362,1.2754822,0.5028353,0
0.280838,1.6322174,0.11855793,0
0.31196594,1.5998993,-0.22978497,0
0.14675903,1.3401337,-0.22140789,0
-0.018432617,1.4538574,-0.16035748,0
-0.1632843,1.5795441,0.17841816,0
-0.15730286,1.4813843,0.29095173,0
-0.04597473,1.5256805,-0.6116667,0
-0.16088867,1.5879364,-0.74693584,0
-0.30574036,1.3939972,-0.062197685,0
-0.19322205,1.3760376,0.5519228,0
0.011489868,1.7232056,0.19877338,0
0.06295776,1.6537628,-0.05142498,0
0.06416321,1.3209686,0.023999214,0
0.07733154,1.3245697,0.14370441,0
0.10845947,1.3916016,0.2705965,0
0.21020508,1.3939972,0.21912861,0
0.26527405,1.5915222,-0.3303404,0
0.17788696,1.6513824,-0.5937071,0
0.201828,1.555603,-0.3794279,0
0.26527405,1.495758,0.24306965,0
0.42448425,1.5232849,0.24306965,0
0.4089203,1.5639801,-0.1340208,0
0.2712555,1.4191437,-0.11128521,0
0.09289551,1.5220947,-0.2321806,0
-0.051956177,1.6166534,-0.3686552,0
-0.24708557,1.5615997,-0.32556438,0
-0.26863098,1.461029,-0.34350872,0
-0.22673035,1.5137024,-0.31000042,0
-0.22193909,1.5424347,0.13293171,0
-0.19920349,1.5436401,0.34362507,0
-0.24468994,1.5448303,0.18200397,0
-0.41827393,1.5292664,-0.17592144,0
-0.46136475,1.3497009,-0.39140606,0
-0.37397766,1.3389282,-0.114871025,0
-0.063934326,1.511322,0.16764545,0
0.2700653,1.6334229,0.04913044,0
0.39575195,1.6082764,-0.17352581,0
0.32034302,1.4347076,-0.48356915,0
0.21858215,1.3544922,-0.5266752,0
0.08691406,1.3257599,-0.31717205,0
0.21020508,1.334137,-0.081347466,0
0.19824219,1.4107513,0.41663837,0
0.06535339,1.4490662,0.29693317,0
-0.19560242,1.4574432,0.086239815,0
-0.52001953,1.2635193,0.15208149,0
-0.723526,1.1569672,-0.01790142,0
-0.5750885,1.2371826,0.10899067,0
-0.26863098,1.3413239,0.24425983,0
0.009094238,1.4011841,0.057507515,0
0.0713501,1.4095612,5.8174133E-5,0
0.013885498,1.2946472,0.31368732,0
-0.010055542,1.2730865,0.02279377,0
-0.07710266,1.4143524,-0.3363371,0
-0.21356201,1.368866,-0.28724957,0
-0.23750305,1.2970276,-0.05142498,0
-0.19920349,1.471817,-0.16633892,0
-0.22314453,1.5675812,-0.6224394,0
-0.37516785,1.2946472,-0.46921062,0
-0.34165955,1.1856995,-0.32435894,0
-0.111816406,1.3114014,-0.31717205,0
-0.055541992,1.4251251,-0.04663372,0
0.045013428,1.4825897,0.0060396194,0
0.11802673,1.5663757,0.009625435,0
-0.05316162,1.4694214,0.2598238,0
-0.19799805,1.2766876,0.419034,0
-0.044769287,1.2778778,0.1508913,0
0.046203613,1.3652649,0.21912861,0
0.010284424,1.5723724,0.21912861,0
0.028244019,1.571167,0.20834064,0
0.009094238,1.5304718,-0.078951836,0
-0.15490723,1.4287109,-0.2034483,0
-0.23750305,1.2575226,-0.08015728,0
-0.16209412,1.2551422,0.2921419,0
0.003112793,1.4179382,0.39390278,0
0.036621094,1.4933624,0.057507515,0
0.040222168,1.3413239,-0.114871025,0
0.040222168,1.2515411,-0.25493145,0
0.007904053,1.1976776,0.0012483597,0
0.1048584,1.2695007,-0.29562664,0
0.29161072,1.3664703,-0.44168377,0
0.43048096,1.4730072,-0.50392437,0
0.4005432,1.4442749,0.01800251,0
0.19224548,1.3054199,0.4729128,0
0.08691406,1.2120361,0.7219057,0
-0.10702515,1.2623138,0.1688509,0
-0.20399475,1.1916962,-0.06817913,0
-0.3284912,1.061203,0.3280611,0
-0.14173889,1.2311859,0.07546711,0
0.061767578,1.4275208,-0.15317059,0
0.13957214,1.2431641,-0.10409832,0
0.09289551,1.2886505,-0.24655437,0
-0.007659912,1.4095612,-0.19388103,0
-0.15849304,1.1940765,0.09701252,0
-0.11779785,1.2060547,-0.0657835,0
-0.042373657,1.3892059,-0.25732708,0
-0.08308411,1.2563324,-0.05142498,0
0.019866943,1.116272,0.13891315,0
0.21020508,1.3185883,-0.12085247,0
0.19703674,1.2395782,-0.019106865,0
0.20063782,1.021698,0.22511005,0
0.31913757,1.2850647,-0.11845684,0
0.20422363,1.377243,0.086239815,0
0.013885498,1.0887451,0.35558796,0
-0.07110596,1.2718964,0.12574482,0
-0.054351807,1.3329468,-0.12085247,0
0.012680054,1.1042938,0.04433918,0
0.045013428,1.1509857,0.3903017,0
0.14196777,1.4047699,0.3675661,0
0.21499634,1.3628693,0.48608112,0
0.13000488,1.2730865,0.09940815,0
-0.1058197,1.3042145,-0.29204082,0
-0.3284912,1.1521912,-0.2501402,0
-0.2961731,1.0252991,-0.1519804,0
-0.17645264,1.1988678,-0.069384575,0
-0.08068848,1.1904907,0.095822334,0
0.030639648,1.1785278,0.02758503,0
0.12281799,1.1270447,0.038357735,0
0.045013428,1.1222534,0.13293171,0
0.1443634,1.1198578,0.13651752,0
0.29640198,1.2323914,0.13772297,0
0.2604828,1.3832245,0.14968586,0
0.14196777,1.408371,-0.21184063,0
-0.13096619,1.2874603,-0.34112835,0
-0.23391724,1.2335815,-0.1986723,0
-0.3859558,1.4035797,-0.35190105,0
-0.45777893,1.3329468,-0.48956585,0
-0.4278412,1.1928864,-0.07776165,0
-0.47094727,1.203659,0.21433735,0
-0.62776184,1.3604736,0.22150898,0
-0.70558167,1.2264099,0.031170845,0
-0.6947937,1.171341,-0.49196148,0
-0.53678894,1.3078003,-0.14479351,0
-0.32609558,1.2395782,0.48248005,0
0.017471313,1.3796387,0.23946857,0
0.12402344,1.5831451,-0.21661663,0
-0.0435791,1.3628693,0.08025837,0
-0.06512451,1.1342316,0.13293171,0
0.09529114,1.3461151,-0.14599895,0
0.028244019,1.3868103,0.01800251,0
-0.0435791,1.2216187,0.12695026,0
-0.09265137,1.3856201,-0.16514874,0
-0.23391724,1.5065308,-0.25134563,0
-0.37516785,1.2072449,-0.14479351,0
-0.42185974,1.164154,-0.4189329,0
-0.46376038,1.373642,-0.47519207,0
-0.45777893,1.2204132,-0.31479168,0
-0.39312744,1.124649,-0.2716856,0
-0.3584137,1.2395782,0.031170845,0
-0.35482788,1.3281555,0.419034,0
-0.46974182,1.3125916,0.6141634,0
-0.70677185,1.3676605,-0.12922955,0
-0.8588104,1.3101959,-0.47400188,0
-0.92344666,1.250351,-0.36267376,0
-0.8600006,1.2491455,0.03237629,0
-0.70796204,1.3892059,0.29812336,0
-0.67684937,1.5747681,0.079068184,0
-0.71635437,1.4382935,-0.011919975,0
-0.81570435,1.397583,-0.17473125,0
-0.7498627,1.3401337,-0.014315605,0
-0.61579895,1.2683105,-0.08732891,0
-0.53079224,1.3473053,-0.24176311,0
-0.5894623,1.4837799,-0.17233562,0
-0.5439606,1.3520966,-0.0370512,0
-0.505661,1.4059753,-0.36386395,0
-0.4841156,1.4203339,-0.5338621,0
-0.47213745,1.3724518,-0.43210125,0
-0.47453308,1.4287109,-0.19267559,0
-0.4853058,1.500534,-0.0945158,0
-0.4948883,1.373642,-0.05142498,0
-0.5379791,1.3700562,0.057507515,0
-0.7594452,1.4299164,0.2526369,0
-0.86958313,1.373642,0.17123127,0
-0.93063354,1.3664703,-0.0035429,0
-1.039566,1.3437195,-0.06338787,0
-1.1113892,1.3197784,0.002453804,0
-1.0323792,1.3628693,-0.14599895,0
-0.9102783,1.4095612,-0.08015728,0
-0.83247375,1.3580933,-0.16514874,0
-0.8635864,1.4993439,-0.2896452,0
-0.81570435,1.3856201,0.08744526,0
-0.66726685,1.3090057,0.34122944,0
-0.5379791,1.397583,0.13772297,0
-0.5068512,1.4873657,-0.08732891,0
-0.5463562,1.4059753,-0.15677166,0
-0.60980225,1.3449249,-0.44645977,0
-0.6588898,1.2994232,-0.6116667,0
-0.7091675,1.3544922,-0.42491436,0
-0.7043762,1.3892059,-0.0011472702,0
-0.7342987,1.4442749,0.047940254,0
-0.8923187,1.3939972,0.093426704,0
-0.95336914,1.3592834,0.021603584,0
-0.8528137,1.3317566,0.17483234,0
-0.80851746,1.4634247,0.08025837,0
-0.7319031,1.4825897,-0.04423809,0
-0.4960785,1.3844147,0.04673481,0
-0.37039185,1.4011841,0.3388338,0
-0.23391724,1.516098,0.18200397,0
-0.16448975,1.5149078,-0.0657835,0
-0.2782135,1.4466705,-0.3578825,0
-0.52601624,1.4071655,-0.4775877,0
-0.7307129,1.3329468,-0.09930706,0
-0.8061371,1.377243,0.12334919,0
-0.7007904,1.5532074,0.0539217,0
-0.6074066,1.626236,-0.20584393,0
-0.66368103,1.3628693,0.052731514,0
-0.679245,1.2730865,-0.093325615,0
-0.57629395,1.3856201,-0.17831707,0
-0.37278748,1.3114014,-0.088534355,0
-0.28419495,1.4598389,-0.35309124,0
-0.36320496,1.5975037,-0.3578825,0
-0.565506,1.5029297,0.15568256,0
-0.62776184,1.3904114,0.4944582,0
-0.67803955,1.4215393,0.14729023,0
-0.8456421,1.3712616,-0.16633892,0
-0.9689331,1.2695007,-0.2776823,0
-1.0611115,1.3114014,0.045544624,0
-0.99287415,1.4311066,0.45974445,0
-0.7414856,1.3880157,0.6069765,0
-0.50445557,1.5568085,0.295743,0
-0.46855164,1.456253,0.19877338,0
-0.4673462,1.116272,0.10180378,0
-0.3691864,1.0911255,-0.04423809,0
-0.2961731,1.3556976,-0.05382061,0
-0.20039368,1.3030243,-0.12803936,0
-0.17526245,1.1893005,-0.6284208,0
-0.2614441,1.2491455,-0.67392254,0
-0.4051056,1.0719757,0.13293171,0
-0.46495056,1.0887451,0.27299213,0
-0.5092468,1.416748,-0.08015728,0
-0.49249268,1.2299957,-0.55180645,0
-0.5547333,0.97262573,-0.7146177,0
-0.83366394,1.0815582,-0.24774456,0
-0.91986084,1.1533813,0.52917194,0
-0.7414856,1.0312805,0.6177492,0
-0.7211304,1.0444489,-0.057406425,0
-0.9066925,1.0504303,-0.24774456,0
-0.9844971,0.9307251,-0.1986723,0
-1.0910339,0.9055786,-0.1232481,0
-1.070694,0.89959717,0.26580524,0
-1.0216064,0.88523865,-0.016711235,0
-0.8779602,1.0073395,-0.09930706,0
-0.71875,0.9893799,0.20954609,0
-0.6361389,0.8445282,0.3292513,0
-0.60621643,0.843338,0.21552753,0
-0.39672852,0.91156006,0.019207954,0
-0.23989868,0.9786072,-0.24176311,0
-0.25427246,0.97979736,-0.18669415,0
-0.28179932,0.7978363,-0.13762188,0
-0.3189087,0.843338,-0.081347466,0
-0.28419495,0.982193,0.39269733,0
-0.24229431,0.9055786,0.5842409,0
-0.25546265,0.6781311,-0.1412077,0
-0.33207703,0.65060425,-0.6763029,0
-0.4481964,0.6565857,-0.31717205,0
-0.4374237,0.78466797,0.41065693,0
-0.29736328,1.0085297,0.5566988,0
-0.05316162,1.1090851,0.18081379,0
0.027053833,1.0085297,0.0036439896,0
-0.16926575,0.99775696,-0.095721245,0
-0.35362244,1.0659943,0.047940254,0
-0.2506714,1.0073395,0.064694405,0
-0.1010437,1.0205078,0.10419941,0
0.021072388,1.195282,-0.071780205,0
0.18507385,1.2623138,0.059903145,0
0.23175049,1.2802734,0.076672554,0
0.14915466,1.3401337,-0.010714531,0
0.16590881,1.3257599,0.23946857,0
0.1443634,1.2359772,0.107785225,0
0.05937195,1.3520966,-0.28366375,0
-0.030410767,1.3712616,-0.49315166,0
0.20422363,1.4179382,-0.40217876,0
0.22576904,1.4969482,-0.2034483,0
0.46040344,1.6202545,0.13532734,0
0.6351776,1.4861755,0.22990131,0
0.7991791,1.4861755,-0.05861187,0
0.92248535,1.6429901,-0.10170269,0
0.9583893,1.5436401,0.06589985,0
0.96199036,1.4143524,-0.1627531,0
1.0014954,1.3461151,-0.15916729,0
1.0314178,1.3700562,0.03477192,0
1.2421112,1.4466705,0.2203188,0
1.2732391,1.5101166,0.110180855,0
1.2277374,1.5723724,0.09223652,0
1.1439514,1.4358978,0.14370441,0
1.0397949,1.4490662,-0.11366558,0
0.8913574,1.5125122,-0.31717205,0
0.6639099,1.3784332,-0.01790142,0
0.6100464,1.3281555,0.03956318,0
0.7321472,1.4550476,0.079068184,0
0.8746033,1.4993439,0.114972115,0
0.9895172,1.4430847,0.026394844,0
1.0709229,1.413147,-0.06817913,0
1.072113,1.452652,-0.21303082,0
1.0266266,1.4023743,-0.21782207,0
1.05896,1.4143524,-0.35548687,0
1.1631012,1.4394836,-0.33394146,0
1.1930237,1.3939972,-0.105288506,0
1.2397156,1.4107513,-0.035861015,0
1.3342896,1.456253,-0.019106865,0
1.3426666,1.4490662,-0.10649395,0
1.2480927,1.3712616,-0.04423809,0
1.2229614,1.4119568,-0.00833416,0
1.2935791,1.4095612,0.09940815,0
1.2995758,1.4694214,-0.114871025,0
1.2193604,1.4646301,-0.13762188,0
1.1391602,1.4119568,-0.0610075,0
1.1295776,1.3724518,0.14729023,0
1.127182,1.4107513,0.03956318,0
1.0769043,1.413147,-0.01790142,0
1.0110626,1.3485107,-0.10170269,0
0.89256287,1.4071655,-0.15677166,0
0.7369385,1.4107513,-0.04184246,0
0.67707825,1.2575226,0.122159004,0
0.7249603,1.2467499,0.09940815,0
0.7728424,1.4215393,-0.019106865,0
0.81474304,1.408371,0.02039814,0
0.81355286,1.3401337,-0.040652275,0
0.6746826,1.4861755,-0.34231853,0
0.533432,1.3317566,-0.050219536,0
0.48913574,1.2467499,-0.100497246,0
0.5753174,1.3904114,-0.31358624,0
0.56214905,1.4706116,-0.19388103,0
0.56214905,1.3161926,5.8174133E-5,0
0.6100464,1.3748474,-0.23936749,0
0.61602783,1.4358978,-0.17592144,0
0.5154724,1.2946472,0.007229805,0
0.48913574,1.3054199,0.112576485,0
0.5453949,1.3999786,0.14968586,0
0.49032593,1.4347076,0.3460207,0
0.33470154,1.4035797,0.08744526,0
0.13119507,1.461029,-0.095721245,0
-0.051956177,1.3724518,-0.076556206,0
-0.090270996,1.2994232,-0.09691143,0
-0.037597656,1.3916016,0.007229805,0
-4.8828125E-4,1.3808289,0.1113863,0
-0.0016784668,1.4358978,-0.2274046,0
-0.06752014,1.5089264,-0.107684135,0
-0.12019348,1.3832245,0.124554634,0
-0.18722534,1.3916016,0.25861835,0
-0.19082642,1.4059753,0.122159004,0
-0.18363953,1.4347076,-0.02748394,0
-0.1812439,1.4430847,-0.26570415,0
-0.12857056,1.4694214,-0.27647686,0
-0.12258911,1.4873657,-0.13283062,0
-0.13336182,1.468216,-0.05861187,0
-0.0040740967,1.4155426,-0.086138725,0
0.12042236,1.4694214,-0.07776165,0
0.18746948,1.4598389,-0.010714531,0
0.26766968,1.500534,-0.1627531,0
0.27246094,1.5125122,-0.02269268,0
0.20422363,1.452652,-0.08972454,0
0.08331299,1.5089264,-0.31239605,0
-0.017242432,1.5388489,-0.38901043,0
-0.06871033,1.4418793,-0.11366558,0
-0.14294434,1.5699768,-0.17113018,0
-0.2207489,1.6382141,-0.21423626,0
-0.2602539,1.5424347,-0.12564373,0
-0.29257202,1.5603943,0.08984089,0
-0.24827576,1.5998993,0.28974628,0
-0.09625244,1.7399597,0.1341219,0
0.10725403,1.7124329,0.057507515,0
0.32273865,1.7232056,-0.05382061,0
0.3897705,1.5963135,0.16045856,0
0.42808533,1.4287109,0.37594318,0
0.37062073,1.4299164,0.2131319,0
0.1443634,1.456253,0.06110859,0
-0.10821533,1.5292664,-0.3590727,0
-0.33447266,1.3712616,-0.28485394,0
-0.43981934,1.4227295,-0.40217876,0
-0.47573853,1.4801941,-0.22859478,0
-0.35482788,1.3760376,-0.10649395,0
-0.33088684,1.2012634,-0.08972454,0
-0.38475037,1.1749268,-0.26211834,0
-0.46974182,1.0971222,-0.045443535,0
-0.5283966,1.1366272,0.14968586,0
-0.6301575,1.3856201,0.047940254,0
-0.5726929,1.6693268,-0.19388103,0
-0.4960785,1.7483368,-0.34471416,0
-0.3009491,1.4754028,-0.38421917,0
-0.21476746,1.5173035,-0.4081602,0
-0.16926575,1.5627899,-0.16873455,0
-0.10223389,1.4454803,0.09461689,0
-0.035202026,1.3317566,0.24784565,0
0.053390503,1.511322,-0.014315605,0
-0.04597473,1.6633453,0.36277485,0
-0.11540222,1.4741974,0.64050007,0
-0.11898804,1.5448303,0.13293171,0
-0.14892578,1.6705322,-0.08732891,0
-0.14294434,1.5651855,0.2310915,0
-0.057937622,1.5987091,0.20356464,0
0.1048584,1.705246,-0.047839165,0
0.03543091,1.5927124,-0.20704937,0
-0.08187866,1.329361,-0.09691143,0
-0.16209412,1.571167,-0.32435894,0
-0.29138184,1.6142731,-0.09212017,0
-0.34165955,1.4789886,-0.11366558,0
-0.3009491,1.377243,-0.2788725,0
-0.26383972,1.5173035,-0.4763975,0
-0.3907318,1.4706116,-0.093325615,0
-0.31651306,1.3556976,0.019207954,0
-0.32369995,1.4215393,-0.043047905,0
-0.32728577,1.4466705,0.124554634,0
-0.32728577,1.4861755,0.4010744,0
-0.26383972,1.4861755,0.33404255,0
-0.20639038,1.5232849,-0.40336895,0
-0.28659058,1.3676605,-0.57934856,0
-0.22314453,1.3497009,-0.25493145,0
-0.08906555,1.4909668,0.3867159,0
0.1515503,1.6693268,0.3567934,0
0.1910553,1.6358185,0.064694405,0
0.10845947,1.5975037,-0.30162334,0
-0.14772034,1.4909668,-0.026278496,0
-0.3009491,1.4347076,0.25024128,0
-0.20399475,1.5232849,0.2526369,0
7.171631E-4,1.5759583,-0.062197685,0
0.08331299,1.5579987,-0.13762188,0
0.12402344,1.476593,-0.010714531,0
0.12162781,1.5592041,0.10899067,0
0.028244019,1.5723724,0.12574482,0
-0.011260986,1.6310272,-0.13283062,0
-0.15849304,1.9207306,-0.42970562,0
-0.17645264,2.2606964,-0.21782207,0
-0.17765808,2.4797668,-0.12683392,0
-0.08547974,2.3756256,-0.14839458,0
7.171631E-4,2.0117035,-0.31000042,0
-0.007659912,1.4670258,-0.02748394,0
-0.019638062,1.2695007,-0.288455,0
-0.017242432,1.4047699,-0.19027996,0
-0.014846802,1.7243958,0.114972115,0
-0.09625244,2.2140198,0.16645527,0
-0.026824951,2.740738,0.1341219,0
0.037826538,2.9346619,0.0539217,0
0.07852173,2.752716,-0.38780499,0
0.029449463,2.3612518,-0.466815,0
-0.024429321,1.9111481,-0.30879498,0
-0.039993286,1.6884918,0.20356464,0
-0.025619507,1.6561584,0.27538776,0
0.14556885,2.0583954,-0.2274046,0
0.17907715,2.4019623,-0.6571531,0
0.27365112,2.6246185,-0.6930723,0
0.26408386,2.8484802,-0.3303404,0
0.39575195,2.8688202,-0.07536602,0
0.498703,2.6473694,-0.18310833,0
0.45082092,2.2678833,-0.34112835,0
0.2772522,2.1302185,-0.53984356,0
0.046203613,2.0356445,-0.41174603,0
-0.11779785,2.1026764,-0.098116875,0
-0.08187866,2.4534302,-0.088534355,0
0.05697632,2.649765,-0.17711163,0
0.25091553,2.749115,-0.22380352,0
0.30836487,2.6916504,-0.29443645,0
0.39935303,2.622223,-0.42731,0
0.42687988,2.507309,-0.30162334,0
0.5023041,2.333725,-0.09691143,0
0.65792847,2.4199219,-0.23578167,0
0.7429199,2.45224,-0.29204082,0
0.7536926,2.5264587,-0.28605938,0
0.61842346,2.436676,0.15208149,0
0.53941345,2.594696,-0.11128521,0
0.36582947,2.606659,-0.45245647,0
0.23893738,2.3995667,-0.76489544,0
0.09768677,2.369629,-0.31239605,0
0.16830444,2.539627,-0.098116875,0
0.34188843,2.6677094,-0.0657835,0
0.38858032,2.5719452,-0.23338604,0
0.28323364,2.476181,-0.6140623,0
0.1048584,2.4306946,-0.36027813,0
0.0066986084,2.3552704,0.0251894,0
0.048599243,2.381607,-0.1340208,0
0.12162781,2.4474487,-0.51111126,0
0.21739197,2.4175262,-0.6691313,0
0.30717468,2.4821625,-0.30162334,0
0.45561218,2.6521454,-0.013110161,0
0.6279907,2.7539062,-0.16873455,0
0.6854553,2.678482,-0.4763975,0
0.672287,2.4294891,-0.5494108,0
0.5944824,2.3708344,-0.48237896,0
0.4663849,2.326538,0.010830879,0
0.47117615,2.428299,0.1448946,0
0.45561218,2.6988373,-0.12803936,0
0.32992554,2.717987,-0.3758421,0
0.18267822,2.5659637,-0.48356915,0
0.06295776,2.555191,-0.41295147,0
0.0713501,2.5252533,-0.209445,0
0.22935486,2.512085,-0.064593315,0
0.42808533,2.649765,-0.31239605,0
0.47357178,2.5803223,-0.23697186,0
0.38497925,2.5216675,-0.23338604,0
0.33590698,2.3923798,-0.10409832,0
0.34188843,2.4067535,-0.17473125,0
0.2485199,2.4929352,-0.44168377,0
0.2305603,2.4893494,-0.7122221,0
0.12760925,2.5659637,-0.5961027,0
0.07972717,2.5743408,-0.22500896,0
0.12879944,2.5180817,-0.12683392,0
0.15513611,2.5204773,-0.12803936,0
0.17549133,2.47258,-0.21184063,0
0.23414612,2.4318848,-0.5542021,0
0.33470154,2.3804169,-0.59968853,0
0.414917,2.3193512,-0.08015728,0
0.55737305,2.4893494,0.22630024,0
0.70700073,2.740738,0.29812336,0
0.7417145,2.5503998,0.02998066,0
0.5860901,2.2487335,-0.4045744,0
0.4364624,2.120636,-0.53265667,0
0.22576904,2.1158447,-0.18789959,0
0.25569153,2.0751495,0.04433918,0
0.42329407,2.2367554,-0.35548687,0
0.46159363,2.460617,-0.4943571,0
0.36343384,2.397171,-0.17233562,0
0.22935486,2.3480835,-0.16994,0
0.09887695,2.3959656,-0.23338604,0
0.1156311,2.223587,-0.5278654,0
0.11802673,2.108673,-0.5530119,0
0.11802673,2.0955048,-0.22500896,0
0.22576904,2.2367554,5.8174133E-5,0
0.36343384,2.3385162,0.02039814,0
0.47836304,2.29422,-0.13881207,0
0.41252136,2.2020416,-0.16754436,0
0.39337158,2.0488129,-0.1807127,0
0.35266113,2.1038818,-0.13283062,0
0.36582947,2.2164001,0.23946857,0
0.3394928,2.3612518,0.30531025,0
0.2928009,2.3612518,0.16645527,0
0.08331299,2.2128143,-0.086138725,0
-0.134552,2.163742,-0.40097332,0
-0.22433472,2.081131,-0.25851727,0
-0.19322205,2.192459,-0.2824583,0
-0.04837036,2.3073883,-0.52307415,0
0.18746948,2.2978058,-0.46322918,0
0.26527405,2.254715,-0.1627531,0
0.29759216,2.270279,-0.20823956,0
0.27963257,2.1745148,-0.050219536,0
0.24372864,2.0224762,-0.019106865,0
0.2712555,2.1409912,-0.17233562,0
0.30238342,2.1960602,0.007229805,0
0.44004822,2.2738647,0.12814045,0
0.51068115,2.3792114,-0.20465374,0
0.5525818,2.4342804,-0.42132854,0
0.50109863,2.3959656,-0.39978313,0
0.48913574,2.4498444,-0.20823956,0
0.49272156,2.500122,0.045544624,0
0.48434448,2.421112,0.069485664,0
0.44244385,2.3863983,-0.05861187,0
0.22816467,2.4905396,-0.17233562,0
0.022262573,2.3373108,-0.04902935,0
-0.06512451,2.1781006,-0.4560423,0
-0.054351807,2.2810516,-0.47160625,0
0.12879944,2.3014069,-0.10649395,0
0.4376526,2.2930145,0.11378193,0
0.7022095,2.3863983,0.02998066,0
0.8314972,2.4546356,-0.17950726,0
0.70700073,2.2966156,-0.1986723,0
0.40293884,2.1589508,-0.15677166,0
0.18147278,2.168518,-0.27528667,0
0.031845093,2.2798462,-0.4476652,0
0.09169006,2.3313293,-0.5637846,0
0.20541382,2.2511292,-0.54822063,0
0.14675903,2.0583954,0.02279377,0
0.11683655,2.1948547,-0.50152874,0
0.19703674,2.050003,-0.466815,0
0.2820282,1.7423553,-0.026278496,0
0.27963257,1.8249512,-0.23936749,0
0.29519653,2.1804962,-0.5554075,0
0.46398926,1.8488922,-0.03944683,0
0.5705414,1.586731,0.18800068,0
0.5525818,1.8201599,0.03956318,0
0.53222656,1.981781,-0.2788725,0
0.6040497,1.7471466,-0.074160576,0
0.5633545,1.7435455,0.38790607,0
0.3466797,2.050003,-0.14599895,0
0.07374573,2.0356445,-0.4476652,0
0.007904053,1.5627899,0.26940632,0
-0.051956177,1.5603943,0.37473774,0
-0.13575745,1.9195251,0.2023592,0
0.15274048,1.5927124,-0.0945158,0
0.32034302,1.3868103,-0.5362425,0
0.17668152,1.7794647,-0.35309124,0
0.19824219,1.8848114,0.22990131,0
0.34069824,1.7423553,0.43340778,0
0.5346222,1.9530487,-0.3183775,0
0.36941528,2.1541595,-0.92410564,0
0.09289551,1.7375641,-0.03467083,0
0.15992737,1.416748,0.04194355,0
0.29519653,1.8931885,-0.253726,0
0.5094757,1.9494476,0.26101398,0
0.58729553,1.823761,0.3675661,0
0.375412,2.0428314,-0.15916729,0
0.16590881,2.05719,-0.47160625,0
0.18386841,1.511322,-0.028674126,0
0.19824219,1.5723724,-0.021502495,0
0.31913757,2.069168,-0.47400188,0
0.6794739,2.1589508,-0.3686552,0
0.8961487,1.9925537,0.39869404,0
0.7872162,2.2511292,0.3101015,0
0.538208,2.3193512,0.088635445,0
0.36224365,1.8069916,0.50043964,0
0.2305603,1.6190491,0.51839924,0
0.23774719,1.9482574,-0.16394329,0
0.33351135,1.8261566,-0.05142498,0
0.44602966,1.6956635,-0.47400188,0
0.42089844,1.9518433,-0.62004375,0
0.48075867,1.9374847,-0.5757475,0
0.64715576,1.5687714,-0.16514874,0
0.83628845,1.4837799,-0.04902935,0
0.7919922,1.6034851,-0.3111906,0
0.5477905,1.5208893,-0.10888958,0
0.23654175,1.452652,-0.083743095,0
0.08929443,1.8225555,-0.36146832,0
0.10006714,2.0979004,-0.23338604,0
0.26885986,1.9494476,0.040753365,0
0.5453949,1.7675018,-0.3004179,0
0.5860901,1.7495422,-0.34950542,0
0.56933594,1.3856201,0.5638857,0
0.5525818,1.2695007,0.5938082,0
0.44244385,1.4849854,-0.0011472702,0
0.46998596,1.5364532,-0.20106792,0
0.4256897,1.5663757,-0.09212017,0
0.38378906,1.9542389,-0.0945158,0
0.43286133,2.0476227,-0.18190289,0
0.4436493,1.9087524,-0.5135069,0
0.4651947,1.6944733,-0.47041607,0
0.53941345,1.5280762,-0.22859478,0
0.5549774,1.4574432,-0.0945158,0
0.60046387,1.1988678,0.028775215,0
0.47476196,1.2060547,-0.031069756,0
0.22816467,1.3700562,0.098217964,0
0.12402344,1.5807495,0.17602253,0
0.058181763,1.4514618,0.29095173,0
-0.07350159,1.5675812,-0.19986248,0
-0.11540222,1.4598389,-0.033465385,0
0.12760925,1.3892059,0.33762836,0
0.4364624,1.3233643,0.53275776,0
0.60884094,1.5496216,-0.19027996,0
0.60765076,1.4694214,-0.41774273,0
0.57891846,1.2766876,0.14610004,0
0.56933594,1.3664703,0.7075319,0
0.47476196,1.7256012,0.4693117,0
0.2485199,1.6848907,-0.54103374,0
0.05218506,1.2718964,-0.85586834,0
-0.13934326,1.2216187,-0.466815,0
-0.14892578,1.3664703,-0.15677166,0
0.22457886,1.5771484,-0.28724957,0
0.493927,1.7303772,-0.7026396,0
0.36463928,1.7746735,-0.5159025,0
0.19584656,1.4466705,0.17243671,0
-0.04118347,1.4694214,0.13532734,0
-0.129776,1.6166534,-0.13641644,0
-0.055541992,1.6094818,-0.27408123,0
-0.061538696,1.7303772,-0.45006084,0
-0.09864807,2.0380402,-0.29802227,0
0.08570862,2.112259,0.14370441,0
0.42808533,2.033249,0.45974445,0
0.68785095,1.8860016,0.23229694,0
0.711792,1.4813843,0.095822334,0
0.5023041,1.1833038,0.20475483,0
0.35624695,1.1785278,0.40586567,0
0.21618652,1.4203339,0.27657795,0
0.2305603,1.6585541,0.06589985,0
0.42808533,2.0679626,-0.06817913,0
0.6136322,2.3109741,0.04433918,0
0.63638306,2.4390717,-0.60808086,0
0.5597687,2.0931091,-0.81517315,0
0.5525818,1.634613,-0.56257915,0
0.498703,1.329361,0.23827839,0
0.40293884,1.4825897,0.19756794,0
0.38378906,1.5149078,-0.15077496,0
0.21141052,1.5388489,-0.71342754,0
-0.090270996,1.8800201,-0.99952984,0
-0.17526245,2.227188,-0.53026104,0
0.07493591,2.1972504,0.513608,0
0.54660034,2.2954102,0.340024,0
0.9536133,2.2798462,0.18200397,0
0.97395325,1.8093872,-0.013110161,0
0.7333374,1.4442749,-0.016711235,0
0.52864075,1.4574432,0.33164692,0
0.454422,1.4287109,0.8571749,0
0.593277,1.8069916,0.38790607,0
0.6794739,2.2954102,0.1915865,0
0.47955322,2.3205566,0.09940815,0
0.26168823,2.1110687,-0.124453545,0
0.21141052,1.9362793,-0.42491436,0
0.37780762,1.689682,-0.32675457,0
0.7261658,1.4909668,-0.081347466,0
0.9823303,1.6765137,-0.253726,0
1.0326233,1.8488922,-0.34471416,0
0.8805847,1.7818604,-0.09930706,0
0.54660034,1.9243164,-0.43329144,0
0.26766968,1.9901581,-0.28724957,0
0.19824219,1.8692474,-0.12803936,0
0.26766968,1.9003754,-0.14360332,0
0.33470154,1.923111,-0.24176311,0
0.29400635,1.8285522,-0.21661663,0
0.19584656,1.5747681,0.34481525,0
0.06295776,1.6011047,0.379529,0
0.10845947,1.839325,0.4836855,0
0.32632446,1.823761,0.3388338,0
0.43525696,1.9710083,-0.14479351,0
0.3789978,2.0787354,-0.17950726,0
0.29400635,1.9135437,0.031170845,0
0.27365112,1.79982,-0.15796185,0
0.34786987,1.8656616,-0.45724773,0
0.39337158,1.7567139,-0.43329144,0
0.46279907,1.7100372,-0.4847746,0
0.4436493,1.7507324,-0.49794292,0
0.40174866,1.8297424,-0.34231853,0
0.42208862,1.7507324,0.16045856,0
0.48194885,1.9398804,-0.05142498,0
0.5645447,1.9757843,-0.50392437,0
0.55856323,1.8046112,-0.66673565,0
0.55737305,1.6681366,-0.3219633,0
0.5561676,1.8464966,-0.13283062,0
0.7501068,1.8441162,0.20834064,0
0.95240784,1.9602203,-0.29085064,0
1.0410004,1.9518433,-0.102892876,0
1.0553589,1.926712,-0.21184063,0
0.95240784,1.8273468,0.114972115,0
0.7824249,1.8010101,-0.102892876,0
0.62680054,1.7591095,-0.23457623,0
0.46998596,1.5520172,-0.209445,0
0.4077301,1.4394836,-0.22619915,0
0.42089844,1.4730072,-0.23099041,0
0.49751282,1.5017395,-0.047839165,0
0.5825043,1.4933624,0.031170845,0
0.7309418,1.6824951,-0.38421917,0
0.7608795,1.7483368,-0.20823956,0
0.7106018,1.5639801,0.23707294,0
0.65911865,1.5915222,0.019207954,0
0.6758728,1.5508118,-0.19507122,0
0.6244049,1.3125916,0.010830879,0
0.63638306,1.3916016,-0.059802055,0
0.6531372,1.6417999,0.119763374,0
0.6028595,1.4550476,0.335248,0
0.49032593,1.3856201,0.21073627,0
0.4759674,1.4825897,0.0539217,0
0.6315918,1.4789886,0.079068184,0
0.7082062,1.4155426,0.2598238,0
0.7692566,1.5568085,-0.098116875,0
0.7441101,1.6477814,-0.0011472702,0
0.7429199,1.5292664,-0.07536602,0
0.6040497,1.6142731,-0.41174603,0
0.51426697,1.547226,-0.28485394,0
0.57173157,1.3664703,-0.12564373,0
0.83509827,1.4514618,-0.3866148,0
0.82551575,1.5663757,-0.11606121,0
0.830307,1.4071655,0.35558796,0
0.81474304,1.6705322,-0.26330853,0
0.6220093,1.6166534,-0.32316875,0
0.32992554,1.2802734,0.28974628,0
0.35864258,1.3892059,0.24067402,0
0.42329407,1.6980591,0.295743,0
0.26168823,1.5687714,0.6357088,0
7.171631E-4,1.4706116,0.19398212,0
0.07852173,1.5280762,-0.33752728,0
0.08691406,1.2706909,-0.04423809,0
0.031845093,1.2922516,-0.13283062,0
0.22935486,1.5436401,-0.13162518,0
0.2999878,1.5544128,-0.050219536,0
0.10006714,1.5424347,-0.18908978,0
-0.129776,1.5771484,-0.28126812,0
-0.24110413,1.3700562,-0.3471098,0
-0.29257202,1.3185883,-0.4045744,0
-0.13934326,1.298233,-0.29802227,0
0.07254028,1.4442749,-0.0011472702,0
0.26408386,1.6334229,0.117367744,0
0.44244385,1.4670258,-0.086138725,0
0.35864258,1.4155426,-0.15916729,0
0.30119324,1.329361,0.43818378,0
0.31315613,1.4095612,0.31608295,0
0.36941528,1.4550476,0.3101015,0
0.26168823,1.5759583,-0.5362425,0
0.13719177,1.4945526,-0.20465374,0
0.1156311,1.3485107,-0.25612164,0
0.13479614,1.3987885,-0.3698454,0
0.27963257,1.5017395,-0.43928814,0
0.4651947,1.4227295,-0.047839165,0
0.55137634,1.3856201,0.17841816,0
0.5884857,1.4754028,0.01800251,0
0.54060364,1.3509064,0.3112917,0
0.52264404,1.1916962,0.079068184,0
0.46759033,1.3161926,-0.43568707,0
0.3466797,1.3916016,-0.19027996,0
0.26766968,1.2563324,0.16045856,0
0.27485657,1.4071655,0.23348713,0
0.20541382,1.4634247,0.29095173,0
0.15634155,1.2335815,0.05871296,0
0.030639648,1.1749268,-0.07536602,0
-0.016036987,1.2276001,-0.18550396,0
-0.057937622,1.2850647,-0.26928997,0
0.058181763,1.298233,-0.0657835,0
0.17668152,1.3700562,-0.055010796,0
0.22576904,1.368866,-0.15437603,0
0.25450134,1.2323914,-0.29562664,0
0.3107605,1.1210632,-0.38421917,0
0.38020325,1.1749268,-0.32316875,0
0.4879303,1.1234589,-0.15437603,0
0.5418091,1.2096405,0.0251894,0
0.44483948,1.2862549,-0.09930706,0
0.19584656,1.3233643,-0.12803936,0
-0.012451172,1.1342316,0.19517231,0
-0.21356201,1.1701355,0.19996357,0
-0.35003662,1.1701355,0.008435249,0
-0.042373657,1.1964722,0.13293171,0
0.2305603,1.234787,-0.18789959,0
0.5154724,1.4311066,-0.2274046,0
0.65553284,1.3939972,0.091031075,0
0.5920868,1.4155426,-0.08015728,0
0.4436493,1.468216,-0.31479168,0
0.34786987,1.2958374,-0.2321806,0
0.32034302,1.1928864,0.047940254,0
0.42208862,1.3987885,-0.078951836,0
0.44004822,1.447876,-0.24176311,0
0.42089844,1.2790833,-0.11845684,0
0.4185028,1.2276001,-0.22380352,0
0.3682251,1.2802734,0.019207954,0
0.2999878,1.3784332,0.08504963,0
0.30238342,1.507721,-0.18429852,0
0.21020508,1.5268707,-0.1986723,0
0.015075684,1.3652649,-0.18669415,0
-0.18722534,1.4406891,0.064694405,0
-0.07589722,1.3700562,0.20116901,0
0.09887695,1.471817,-0.110079765,0
0.29640198,1.4897614,-0.2321806,0
0.4436493,1.4442749,0.13172626,0
0.5657501,1.4466705,0.4070711,0
0.6112366,1.5424347,0.25623798,0
0.55137634,1.5017395,0.29812336,0
0.47236633,1.4490662,-0.064593315,0
0.45321655,1.4454803,-0.19986248,0
0.4292755,1.516098,-0.42731,0
0.43286133,1.495758,-0.42372417,0
0.48075867,1.5149078,-0.41174603,0
0.43406677,1.5615997,-0.2429533,0
0.34188843,1.5089264,-0.015505791,0
0.37062073,1.5017395,0.0539217,0
0.3574524,1.4849854,-0.0047330856,0
0.2820282,1.4203339,0.01800251,0
0.22697449,1.3425293,0.05631733,0
0.280838,1.4107513,0.21912861,0
0.31555176,1.4730072,0.25384235,0
0.23654175,1.4849854,0.14370441,0
0.16830444,1.511322,-0.2034483,0
0.19345093,1.547226,-0.29802227,0
0.28562927,1.4789886,-0.32435894,0
0.33351135,1.5496216,-0.2202177,0
0.44125366,1.6226501,-0.16156292,0
0.6399689,1.5340576,0.28257465,0
0.71299744,1.4658203,0.1843996,0
0.6459503,1.5807495,-0.21303082,0
0.48075867,1.4418793,-0.16633892,0
0.3287201,1.3832245,-0.098116875,0
0.22457886,1.4646301,-0.22859478,0
0.15992737,1.4885712,-0.12803936,0
0.23654175,1.4634247,0.03237629,0
0.4185028,1.5256805,0.40946674,0
0.46159363,1.5879364,0.2526369,0
0.47836304,1.4825897,-0.04902935,0
0.5657501,1.4143524,-0.40217876,0
0.5837097,1.4275208,-0.117266655,0
0.7333374,1.3963928,0.27538776,0
0.85066223,1.5747681,0.36277485,0
0.7501068,1.7938232,0.04433918,0
0.5058899,1.5819397,-0.19388103,0
0.14796448,1.3628693,-0.19507122,0
-0.024429321,1.368866,-0.064593315,0
-0.019638062,1.3916016,0.24665546,0
0.13479614,1.4741974,-0.1340208,0
0.3897705,1.5927124,-0.45724773,0
0.577713,1.5783539,-0.21542645,0
0.63038635,1.5603943,0.1915865,0
0.8279114,1.4801941,-0.088534355,0
0.8997345,1.5651855,-0.84390545,0
0.9033356,1.4335022,-0.47041607,0
0.8662262,1.3880157,0.08984089,0
0.8662262,1.5484314,0.6213503,0
0.7692566,1.6717224,0.57825947,0
0.50349426,1.5592041,0.043148994,0
0.2712555,1.471817,-0.55180645,0
0.058181763,1.3185883,-0.2274046,0
0.07374573,1.3078003,-0.009524345,0
0.36582947,1.6322174,0.047940254,0
0.5549774,1.7651062,-0.29085064,0
0.41012573,1.6705322,-0.6068754,0
0.17070007,1.4191437,0.02998066,0
0.18507385,1.3592834,0.6033907,0
0.33709717,1.3760376,0.68119526,0
0.44004822,1.5675812,-0.24055767,0
0.36343384,1.6310272,-0.5099058,0
0.33470154,1.2527466,0.23229694,0
0.41610718,1.3101959,0.5519228,0
0.61602783,1.7016602,-0.0071287155,0
0.78482056,1.5903168,-0.29443645,0
0.6459503,1.3832245,-0.32077312,0
0.42448425,1.5759583,-0.25851727,0
0.32992554,1.5208893,0.20356464,0
0.23654175,1.3868103,0.18800068,0
0.20780945,1.5759583,-0.6655302,0
-0.026824951,1.6226501,-0.97079754,0
-0.24827576,1.3616791,-0.4883604,0
-0.3404541,1.4023743,-0.02987957,0
-0.26504517,1.5089264,0.40347004,0
-0.27342224,1.6334229,-0.019106865,0
-0.24708557,1.5388489,-0.34350872,0
-0.09744263,1.2718964,-0.7337675,0
-0.06871033,1.4191437,-0.466815,0
0.023452759,1.413147,0.46333027,0
0.31196594,1.3233643,0.9349947,0
0.5453949,1.6465912,0.5519228,0
0.5645447,1.7651062,0.038357735,0
0.27485657,1.3568878,0.24425983,0
0.046203613,1.3257599,0.42142963,0
0.10006714,1.5244904,0.3903017,0
0.21141052,1.5795441,0.100613594,0
0.12879944,1.5795441,-0.33154583,0
0.21380615,1.8177795,-0.4201231,0
0.36582947,2.0045166,-0.20106792,0
0.26287842,2.0715637,-0.37344646,0
0.35147095,1.887207,-0.43568707,0
0.29042053,1.5340576,-0.088534355,0
0.13240051,1.3580933,0.1113863,0
-0.07589722,1.3149872,-0.1914854,0
-0.11061096,1.2443542,-0.17352581,0
-0.27342224,1.3473053,0.06828022,0
-0.24110413,1.5568085,-0.23099041,0
-0.008865356,1.6753235,-0.4093504,0
0.2521057,1.4909668,-0.33873272,0
0.15634155,1.6142731,-0.24415874,0
-0.019638062,1.6968689,0.3496065,0
0.11444092,1.4801941,0.59859943,0
0.18507385,1.5424347,-0.1519804,0
0.058181763,1.7435455,-0.18669415,0
-0.007659912,1.4813843,0.19517231,0
0.12640381,1.3784332,0.42501545,0
0.050994873,1.9171295,-0.05142498,0
0.09049988,1.87883,-0.14839458,0
0.15394592,1.7615051,-0.16994,0
0.06895447,1.87883,-0.55899334,0
0.08451843,1.6513824,-0.41653728,0
-0.1010437,1.2180176,-0.17592144,0
-0.20159912,1.1737366,0.25144672,0
-0.10343933,1.4442749,0.12574482,0
-0.007659912,1.500534,0.045544624,0
-0.09146118,1.4011841,-0.14718914,0
-0.16088867,1.5304718,-0.26330853,0
0.06895447,1.5029297,0.21194172,0
0.32632446,1.4933624,-0.0023374557,0
0.30477905,1.5508118,-0.209445,0
0.52983093,1.5579987,-0.20106792,0
0.60765076,1.3305511,0.42023945,0
0.1802826,1.4430847,0.21552753,0
0.0761261,1.6609497,-0.26570415,0
-0.11779785,1.4789886,-0.17473125,0
-0.37876892,1.471817,-0.04663372,0
-0.387146,1.8644562,-0.02029705,0
-0.41348267,1.9554443,0.067090034,0
-0.387146,1.7040405,-0.17113018,0
-0.3368683,1.4155426,-0.5494108,0
-0.37039185,1.2683105,-0.31239605,0
-0.2901764,1.2467499,0.088635445,0
-0.16926575,1.5388489,0.30531025,0
0.11204529,1.7519379,0.1113863,0
0.4185028,1.947052,-0.32435894,0
0.38139343,2.0380402,-0.15677166,0
0.26408386,2.0476227,-0.114871025,0
-0.005264282,2.105072,-0.16514874,0
0.060577393,2.0583954,-0.4045744,0
-0.056747437,1.6525726,-0.078951836,0
-0.1058197,1.4789886,-0.07536602,0
-0.23033142,1.4622345,0.0012483597,0
-0.1920166,1.476593,0.050335884,0
-0.16088867,1.6382141,0.06350422,0
-0.24349976,2.050003,-0.18429852,0
-0.33088684,2.3409119,-0.24655437,0
-0.44700623,2.1697235,0.16764545,0
-0.5379791,2.187683,0.062298775,0
-0.28179932,2.1038818,-0.14239788,0
-0.2315216,1.7208099,-0.11845684,0
-0.116607666,1.416748,-0.2321806,0
0.28562927,1.6011047,-0.15677166,0
0.45681763,1.9757843,0.0251894,0
0.5130768,2.2978058,0.02039814,0
0.60046387,2.3935852,-0.01790142,0
0.7943878,2.7048187,-0.25732708,0
0.7309418,2.404358,0.1736269,0
0.52264404,2.1769104,-0.22500896,0
0.419693,1.8883972,-0.5494108,0
0.13838196,1.5675812,-0.53265667,0
-0.33088684,1.2240143,-0.013110161,0
-0.4733429,1.3544922,0.12574482,0
-0.07589722,1.966217,0.021603584,0
0.08691406,2.175705,-0.043047905,0
0.10964966,2.2427368,-0.41414165,0
0.11204529,2.3827972,-0.53265667,0
0.036621094,2.1721191,0.007229805,0
0.037826538,1.9302979,0.103009224,0
0.09887695,1.6705322,-0.03944683,0
0.14077759,1.5783539,-0.43928814,0
0.03543091,1.511322,-0.21063519,0
0.0713501,1.7160187,-0.31000042,0
0.13719177,2.0763397,-0.6152525,0
0.10127258,2.1158447,0.1341219,0
0.050994873,2.2690735,0.07546711,0
0.375412,2.3588562,-0.069384575,0
0.6279907,2.3241425,-0.062197685,0
0.5274353,1.8896027,-0.045443535,0
0.46159363,1.6980591,-0.32316875,0
0.2999878,1.7064362,-0.16754436,0
0.06655884,1.8034058,0.13532734,0
0.11923218,2.005722,0.06589985,0
0.28681946,2.3217468,-0.46202374,0
0.31436157,2.3768158,-0.48717022,0
0.20422363,2.1733093,-0.15556622,0
0.15274048,2.0799408,0.05631733,0
0.24971008,2.0512085,0.20954609,0
0.21260071,1.8560791,0.21073627,0
0.14556885,1.729187,-0.293231,0
0.2305603,1.9805756,-0.5829344,0
0.12879944,2.0368347,-0.08732891,0
0.05218506,2.1074677,-0.42372417,0
0.08451843,2.0990906,-0.64996624,0
-0.06871033,2.0631714,-0.119662285,0
-0.0723114,2.1493683,0.21673298,0
0.06655884,2.2379608,0.28376484,0
0.12281799,2.2343597,-0.288455,0
-0.005264282,1.9243164,-0.67750835,0
-0.17047119,1.7363739,-0.3578825,0
-0.0016784668,2.0619812,-0.045443535,0
0.27246094,2.4175262,0.07307148,0
0.42808533,2.4701996,-0.34471416,0
0.4256897,2.4534302,-0.9468565,0
0.27604675,2.3600616,-0.8103819,0
0.08451843,2.2164001,0.02758503,0
-0.08666992,2.0942993,0.8308382,0
-0.018432617,2.1553497,0.4298067,0
0.14077759,2.266693,-0.23338604,0
0.16950989,2.0703583,-0.3399229,0
0.20661926,2.227188,-0.6427946,0
0.12281799,2.3636475,-0.12085247,0
-0.055541992,2.4498444,0.31489277,0
-0.029205322,2.3744202,0.46691608,0
0.2305603,2.2906342,0.081448555,0
0.31315613,2.1828918,-0.43091106,0
0.15992737,2.0368347,-0.6978636,0
-0.010055542,2.0033264,-0.28366375,0
0.058181763,2.2774658,0.01800251,0
0.31555176,2.4151306,0.22869587,0
0.58010864,2.53125,-0.2776823,0
0.7884064,2.2439423,-0.33513165,0
0.8710022,2.247528,-0.36625957,0
0.6531372,2.2595062,-0.16394329,0
0.38139343,2.1110687,0.19996357,0
0.07493591,1.9686127,0.4082613,0
-0.039993286,2.0907135,-0.016711235,0
0.029449463,2.3504791,-0.6068754,0
-0.18482971,2.2523193,-0.35667706,0
-0.27342224,2.2559052,-0.34231853,0
-0.34405518,2.4462433,0.105389595,0
-0.2506714,2.3851929,0.6033907,0
0.11323547,2.1769104,0.20596027,0
0.37420654,2.1409912,-0.6236448,0
0.419693,2.1972504,-0.7122221,0
0.36582947,2.1900635,-0.15916729,0
0.43286133,2.342102,0.124554634,0
0.6208191,2.349289,0.15208149,0
0.7477112,2.4414673,-0.4261198,0
0.7872162,2.0775452,-0.035861015,0
0.90093994,1.9434662,0.21912861,0
0.8674164,1.8417206,0.07786274,0
0.6423645,1.8656616,-0.6176481,0
0.19703674,1.5783539,-0.5542021,0
0.037826538,1.5615997,-0.15916729,0
0.060577393,1.947052,-0.26330853,0
0.036621094,2.152954,-0.49673748,0
-0.05076599,1.9111481,-0.38780499,0
0.019866943,1.808197,-0.6284208,0
0.13119507,1.9243164,-0.5841398,0
-0.12019348,1.6956635,-0.14360332,0
-0.11061096,1.3425293,-0.088534355,0
0.17190552,1.492157,-0.42970562,0
0.13838196,1.4406891,0.10899067,0
0.25569153,1.4442749,0.2634096,0
0.577713,1.7423553,0.07786274,0
0.8422699,1.9302979,0.23827839,0
0.8314972,1.8153839,0.010830879,0
0.924881,1.7818604,-0.25851727,0
0.885376,1.7698822,0.09223652,0
0.7884064,1.495758,0.41065693,0
0.8398895,1.6130676,-0.083743095,0
0.60884094,1.4598389,0.2310915,0
0.4472351,1.3305511,0.08744526,0
0.2425232,1.4861755,-0.2992277,0
-0.008865356,1.5520172,-0.21542645,0
-0.19799805,1.5448303,-0.21782207,0
-0.26383972,1.6824951,-0.42251873,0
-0.36439514,1.8668518,-0.5146971,0
-0.44340515,1.6394043,-0.14839458,0
-0.14294434,1.5520172,-0.19986248,0
0.14556885,1.7040405,-0.22978497,0
0.2090149,1.6633453,0.086239815,0
0.32392883,1.4227295,0.23827839,0
0.44004822,1.6525726,-0.36625957,0
0.32273865,1.6058807,-0.26809978,0
0.17190552,1.5053253,-0.16633892,0
0.32992554,1.6394043,0.20596027,0
0.572937,2.033249,0.040753365,0
0.58969116,2.017685,-0.15796185,0
0.6136322,1.6394043,0.2203188,0
0.6351776,1.7734833,-0.059802055,0
0.459198,1.8093872,0.46452045,0
0.2892151,1.5735626,0.77816486,0
0.34907532,1.7555237,0.016812325,0
0.3167572,1.8429108,0.35200214,0
0.27604675,1.7339783,0.119763374,0
0.42687988,1.729187,-0.13283062,0
0.9859314,1.79982,-0.48956585,0
1.0098724,1.5687714,-0.600894,0
0.5549774,1.5843353,-0.73855877,0
0.27844238,1.6765137,-0.010714531,0
0.09648132,1.7435455,0.24665546,0
-0.023223877,1.6753235,-0.0945158,0
0.20063782,1.705246,-0.26928997,0
0.3574524,1.7435455,-0.38540936,0
0.3789978,1.6537628,-0.17592144,0
0.52145386,1.6142731,0.12814045,0
0.7692566,1.7615051,-0.11366558,0
0.93444824,1.7028503,-0.05142498,0
0.9536133,1.6705322,-0.21423626,0
0.90093994,1.6250458,-0.078951836,0
0.7919922,1.5987091,-0.0322752,0
0.6902466,1.6609497,0.012021065,0
0.67349243,1.7866516,-0.083743095,0
0.5753174,1.5520172,0.26101398,0
0.6244049,1.6417999,0.07786274,0
0.74531555,1.7184143,-0.1807127,0
0.7034149,1.6202545,-0.17831707,0
0.4651947,1.4239197,-0.033465385,0
0.44963074,1.5903168,-0.3004179,0
0.3287201,1.5460358,0.026394844,0
0.1335907,1.4909668,0.038357735,0
0.26408386,1.5807495,-0.2597227,0
0.31315613,1.6932678,-0.46441936,0
0.19224548,1.4358978,-0.21423626,0
0.32034302,1.4107513,-0.209445,0
0.4484253,1.5831451,-0.0071287155,0
0.6064453,1.5795441,0.23348713,0
0.751297,1.6250458,-0.112475395,0
0.8997345,1.5771484,-0.36267376,0
0.72854614,1.6034851,-0.5027342,0
0.5442047,1.5125122,0.064694405,0
0.5442047,1.5987091,0.48966694,0
0.5154724,1.7782745,0.2705965,0
0.6255951,1.6405945,0.19996357,0
0.56814575,1.4706116,-0.23338604,0
0.38258362,1.5364532,-0.53265667,0
0.0043029785,1.416748,0.29334736,0
-0.022033691,1.4514618,0.38790607,0
0.13719177,1.6813049,0.08984089,0
0.14317322,1.6813049,0.028775215,0
0.18984985,1.6405945,-0.6727171,0
0.039016724,1.6310272,-0.72897625,0
-0.15132141,1.5532074,0.107785225,0
-0.27581787,1.4849854,0.58663654,0
0.05458069,1.634613,-0.14718914,0
0.22697449,1.6453857,-0.6176481,0
0.12760925,1.2024689,-0.028674126,0
0.30358887,1.3281555,0.059903145,0
0.4041443,1.8321381,0.48008442,0
0.47955322,1.7112274,0.47530842,0
0.51187134,1.6286316,-0.4847746,0
0.5250397,1.4873657,-0.24774456,0
0.39814758,1.6561584,-0.29802227,0
0.22935486,1.5747681,0.2634096,0
0.36582947,1.610672,0.50402546,0
0.39337158,1.7088318,-0.3758421,0
0.2197876,1.5879364,-0.66434,0
-0.059143066,1.2683105,-0.26451397,0
-0.1920166,1.3520966,-0.23578167,0
-0.1812439,1.5771484,0.20954609,0
-0.16088867,1.531662,0.6285372,0
0.14077759,1.6358185,-0.22978497,0
0.34907532,1.6621552,-0.65596294,0
0.1156311,1.3999786,0.17243671,0
0.05458069,1.4646301,0.64887714,0
0.13838196,1.7327728,0.5160036,0
0.27365112,1.4741974,0.086239815,0
0.280838,1.408371,-0.9947386,0
0.1730957,1.329361,-0.51230145,0
-0.087875366,1.3916016,0.73507404,0
-0.012451172,1.6789093,0.8966799,0
0.024658203,1.8153839,-0.08494854,0
-0.18482971,1.6370087,-0.66792583,0
-0.24110413,1.3018188,-0.95283794,0
-0.43502808,1.6382141,-0.98875713,0
-0.4158783,1.555603,0.46812153,0
-0.061538696,1.4897614,0.8559847,0
0.51187134,1.8680573,-0.41774273,0
0.68066406,1.7938232,-0.70743084,0
0.50349426,1.2671051,-0.27528667,0
0.4041443,1.2934418,0.031170845,0
0.11204529,1.6082764,0.95293903,0
-0.114212036,1.4466705,1.2234926,0
0.18267822,1.6250458,-0.0370512,0
0.39456177,1.7124329,-0.51948833,0
0.18267822,1.6046906,-0.54103374,0
-0.14413452,1.5963135,0.2670107,0
-0.029205322,1.6837006,1.0953951,0
0.09768677,1.7040405,0.1401186,0
0.12281799,1.4861755,-0.6104765,0
0.28681946,1.3712616,-0.7445402,0
0.16113281,1.626236,-1.0210752,0
-0.116607666,1.5627899,-0.37703228,0
-0.40750122,1.5089264,-0.17113018,0
-0.308136,1.4574432,0.14729023,0
-0.17286682,1.7028503,-0.3758421,0
-0.26504517,1.5831451,-0.7624998,0
-0.36679077,1.392807,-0.8008146,0
-0.46495056,1.5089264,-0.31239605,0
-0.5128479,1.6477814,0.61895466,0
-0.49728394,1.6753235,0.7075319,0
-0.21955872,1.6992645,-0.019106865,0
-0.05076599,1.5987091,-0.28006268,0
-0.024429321,1.4538574,0.033566475,0
0.11683655,1.571167,0.16764545,0
0.06416321,1.6429901,0.45734882,0
0.14796448,1.3520966,0.60099506,0
0.26168823,1.5029297,-0.2597227,0
0.27246094,1.5089264,-0.56138897,0
0.10845947,1.3808289,-0.44287395,0
-0.10702515,1.4622345,-0.4847746,0
-0.28419495,1.6142731,-0.3183775,0
-0.49249268,1.5496216,0.04433918,0
-0.3859558,1.5424347,-0.26330853,0
-0.3979187,1.665741,-0.8917875,0
-0.5176239,1.4598389,-0.46921062,0
-0.6900177,1.274292,-0.013110161,0
-0.76782227,1.507721,0.083844185,0
-0.70677185,1.6310272,0.419034,0
-0.71875,1.4646301,0.2634096,0
-0.624176,1.4299164,-0.086138725,0
-0.45178223,1.6609497,0.103009224,0
-0.30934143,1.5496216,0.6500826,0
-0.18363953,1.5352631,0.39269733,0
0.06535339,1.7028503,0.31368732,0
0.23774719,1.5184937,0.75661945,0
0.4005432,1.4861755,0.23467731,0
0.6603241,1.7387695,-0.21901226,0
0.533432,1.5975037,-0.1627531,0
0.19824219,1.5412445,-0.42132854,0
-0.06871033,1.6669312,-0.21901226,0
-0.32130432,1.5831451,0.19279194,0
-0.3619995,1.4622345,-0.3291502,0
-0.3404541,1.5699768,-0.63081646,0
-0.3763733,1.5987091,-0.30281353,0
-0.43263245,1.5651855,-0.2776823,0
-0.44940186,1.5412445,-0.100497246,0
-0.37158203,1.4849854,0.25024128,0
-0.36320496,1.4670258,0.40227985,0
-0.14294434,1.3952026,0.21792316,0
-0.0028686523,1.5220947,-0.3363371,0
-0.2674408,1.4442749,-0.45006084,0
-0.4194641,1.2299957,0.34122944,0
-0.20159912,1.6178589,0.36277485,0
0.22097778,1.8189697,-0.031069756,0
0.19345093,1.234787,-0.055010796,0
0.3107605,1.2204132,-1.1180449,0
0.3861847,1.6142731,-1.0785398,0
0.34547424,1.5149078,0.28616047,0
0.44963074,1.3640747,0.08025837,0
0.7369385,1.8165741,-0.54822063,0
0.869812,1.3616791,0.1293459,0
0.9667816,1.124649,-0.837924,0
0.97036743,1.4454803,-0.3866148,0
0.68785095,1.1461945,0.98048115,0
0.31315613,1.2335815,-0.02987957,0
0.18746948,1.5520172,-0.99952984,0
-0.23272705,1.2264099,-0.9935484,0
-0.75346375,0.7762909,-0.9971342,0
-1.0204163,0.91755676,-0.20584393,0
-1.031189,0.9929657,1.2821474,0
-1.2011719,1.061203,0.6524782,0
-0.66607666,1.7662964,-0.58053875,0
-0.40031433,1.5879364,0.07546711,0
-0.48171997,1.0384674,-0.19267559,0
-0.09146118,1.3437195,-0.34950542,0
0.42687988,1.4933624,0.9361849,0
0.40653992,1.0827484,0.98167133,0
0.9787445,1.2084503,0.16045856,0
1.4264679,1.6011047,0.30291462,0
1.122406,1.4837799,0.082654,0
0.8159485,1.3030243,0.7147188,0
0.60165405,1.7782745,0.95533466,0
0.35864258,2.105072,0.1915865,0
0.31436157,2.271469,-1.1132536,0
0.26766968,2.0823364,-1.581317,0
-0.25785828,1.6860962,-1.0378294,0
-0.57987976,1.2443542,0.5064211,0
-0.5427704,1.2575226,0.750638,0
-0.1812439,1.626236,-0.3111906,0
-0.06512451,1.5220947,-0.59849834,0
-0.2722168,1.1019135,-1.1371946,0
-0.090270996,1.2048645,-0.74693584,0
0.030639648,1.7914429,0.093426704,0
0.25450134,2.1625366,-0.05382061,0
0.63038635,2.45224,-0.24655437,0
0.9105072,2.266693,-0.013110161,0
0.83628845,2.0859222,-0.7517271,0
0.44125366,1.626236,-0.021502495,0
0.19464111,0.9738159,0.8990755,0
0.16711426,0.78466797,0.3903017,0
0.31196594,1.1342316,0.059903145,0
0.32034302,1.1437988,0.1915865,0
0.25569153,1.4933624,-0.2716856,0
0.20780945,2.1350098,0.13891315,0
0.13119507,2.3672485,0.6907778,0
0.2700653,2.2738647,-0.122057915,0
0.39216614,1.9530487,-0.5781431,0
0.26885986,1.2910461,0.033566475,0
0.34069824,1.1138763,0.05871296,0
0.6507416,1.4430847,0.026394844,0
0.89016724,1.6561584,-0.071780205,0
0.75608826,1.4502563,-0.090929985,0
0.8279114,1.8285522,-0.4991331,0
0.8781891,2.287033,-0.25253582,0
0.45321655,2.0117035,0.14610004,0
0.3574524,1.8464966,-0.5027342,0
0.33351135,1.8034058,-0.5254698,0
0.10725403,1.5663757,-0.0035429,0
-0.17047119,1.2718964,0.2813692,0
-0.23631287,1.6394043,-0.0011472702,0
-0.19920349,1.7591095,-0.11845684,0
-0.33207703,1.6837006,-0.10649395,0
-0.21716309,1.7675018,-0.09930706,0
-0.08068848,2.0476227,0.02279377,0
-0.16088867,1.6920776,0.3567934,0
0.0066986084,1.6537628,-0.4548521,0
0.09408569,1.4442749,-0.15796185,0
0.042617798,1.203659,0.17602253,0
-0.044769287,1.2419739,0.19996357,0
0.039016724,1.6573639,0.3579836,0
0.11444092,1.8225555,0.07546711,0
0.10606384,1.8860016,-0.4560423,0
0.027053833,1.9374847,-0.48956585,0
-0.029205322,1.8740387,-0.026278496,0
0.13000488,1.6992645,0.11617756,0
0.35505676,1.7028503,-0.31239605,0
0.6387634,1.6513824,-0.47041607,0
0.47476196,1.4179382,-0.07297039,0
0.2604828,1.4598389,0.28735065,0
0.25808716,1.8572845,0.057507515,0
-0.024429321,1.8692474,0.30770588,0
-0.16448975,1.7196045,0.4944582,0
0.022262573,2.0188904,-0.38421917,0
0.0713501,2.0009308,-0.46322918,0
-0.11300659,1.6322174,-0.16633892,0
0.03543091,1.5759583,-0.14000225,0
0.16590881,1.7172089,0.18081379,0
0.1335907,1.6669312,0.3867159,0
0.44244385,1.7423553,-0.15556622,0
0.40293884,1.7579193,-0.31479168,0
0.23295593,1.7100372,-0.06817913,0
0.18147278,1.7076416,0.03237629,0
0.26168823,1.760315,0.03237629,0
0.3718109,1.6034851,-0.033465385,0
0.55856323,1.6549683,-0.42372417,0
0.7620697,1.7675018,-0.3506956,0
0.7297516,1.784256,-0.095721245,0
0.82551575,1.8991699,-0.06338787,0
0.82432556,2.069168,0.100613594,0
0.83270264,2.002121,-0.081347466,0
0.98472595,1.9015656,-0.36386395,0
0.9859314,1.7818604,-0.14599895,0
0.87220764,1.5149078,-0.20225811,0
0.89256287,1.5975037,-0.27528667,0
0.95240784,1.5699768,0.33762836,0
0.9787445,1.571167,-0.019106865,0
0.92967224,1.5244904,-0.72539043,0
0.76805115,1.250351,-0.46083355,0
0.5944824,1.2766876,-0.46322918,0
0.7141876,1.7315826,-0.2776823,0
0.7584839,1.8441162,0.38192463,0
0.9081116,1.918335,-0.1986723,0
1.1200104,2.129013,-0.8666563,0
0.9607849,1.7519379,-0.4763975,0
0.7034149,1.1270447,0.057507515,0
0.6674957,1.2551422,-0.29443645,0
0.62680054,1.2778778,0.20715046,0
0.44483948,1.2060547,0.31489277,0
0.6052551,1.4670258,-0.22619915,0
0.70939636,1.847702,-0.04423809,0
0.52264404,1.8285522,0.37713337,0
0.47117615,1.9051666,0.21673298,0
0.6423645,1.823761,0.1401186,0
0.6423645,1.5579987,-0.288455,0
0.57173157,1.2563324,-0.75770855,0
