acc_x,acc_y,acc_z,label
0.25091553,-0.10357666,-0.6763029,0
0.68066406,0.062820435,-2.0062895,0
0.50709534,0.15739441,-1.1395903,0
-0.20639038,0.098739624,1.0762453,0
-0.5679016,0.05444336,1.9417543,0
-0.4051056,0.031692505,1.0056124,0
-0.09265137,0.06642151,-0.42251873,0
0.25091553,0.12387085,-1.541812,0
0.22218323,0.13943481,-1.2054319,0
-0.051956177,0.16218567,0.2993288,0
-0.33447266,0.19210815,1.2474337,0
-0.2099762,0.15141296,0.5016298,0
0.055786133,-0.080825806,-0.7924223,0
-0.09146118,-0.15264893,-0.7660856,0
-0.39672852,-0.12272644,0.28495502,0
-0.723526,-0.25082397,0.8775301,0
-0.60980225,-0.33821106,0.57226276,0
-0.31292725,-0.32862854,-0.055010796,0
0.028244019,-0.26757812,-0.40097332,0
0.12162781,-0.29151917,-0.20584393,0
0.13719177,-0.19815063,0.34840107,0
0.11204529,-0.15983582,0.5890322,0
0.016281128,-0.15864563,0.19637775,0
-0.013656616,-0.15625,-0.33154583,0
-0.23750305,-0.13710022,-0.3650694,0
-0.36320496,-0.097595215,0.0539217,0
-0.46495056,-0.071258545,0.3783388,0
-0.28659058,-0.044921875,0.2777834,0
0.06535339,-0.09159851,-0.107684135,0
0.26527405,0.07119751,-0.24895,0
0.34547424,0.21125793,-0.11128521,0
0.26408386,0.16098022,0.27657795,0
0.09408569,0.13345337,0.21194172,0
-0.23510742,0.12866211,-0.65596294,0
-0.25427246,-0.15744019,-0.93368816,0
-0.52601624,-0.21131897,0.067090034,0
-0.763031,-0.02217102,0.9361849,0
-0.34883118,-0.025756836,0.6213503,0
0.16711426,-0.2137146,-0.1807127,0
0.64715576,-0.3513794,-0.25134563,0
0.40174866,-0.32025146,-0.05142498,0
-0.10702515,-0.26637268,-0.0322752,0
-0.67803955,-0.15983582,0.13532734,0
-0.84085083,0.04008484,0.04913044,0
-0.7798004,0.013748169,-0.06817913,0
-0.7295227,-0.2831421,0.17602253,0
-0.5547333,-0.17060852,0.23588276,0
-0.40750122,0.02331543,0.27657795,0
-0.13934326,0.21965027,0.48008442,0
0.09408569,0.5153198,0.42501545,0
0.07972717,0.57159424,-0.19507122,0
-0.114212036,0.7978363,-0.48596478,0
-0.3907318,0.99057007,-0.14479351,0
-0.53678894,1.5568085,0.2526369,0
-0.7271271,1.8261566,0.06828022,0
-0.8097229,2.0763397,-0.21782207,0
-1.0228119,2.309784,-0.40695477,0
-1.3388367,2.192459,-0.3866148,0
-1.5207977,2.089508,-0.18908978,0
-1.5279846,1.9338989,-0.062197685,0
-1.3855286,1.4454803,-0.2274046,0
-1.3172913,0.89001465,-0.17233562,0
-1.1149902,0.42674255,0.13172626,0
-0.842041,-0.066467285,-0.047839165,0
-0.8588104,-0.34179688,-0.08255291,0
-0.7019806,-0.42080688,0.24546528,0
-0.49009705,-0.5512848,0.38432026,0
-0.15730286,-0.6470642,0.03716755,0
0.16471863,-0.5010071,-0.21063519,0
0.10606384,-0.21011353,-0.12085247,0
-0.0016784668,-0.011398315,0.055111885,0
0.024658203,0.120285034,0.013226509,0
-0.22314453,0.1585846,0.18081379,0
-0.4960785,0.15620422,0.33045673,0
-0.6181793,0.46385193,0.25503254,0
-0.6289673,0.8744507,0.04913044,0
-0.82647705,1.0540161,-0.08972454,0
-0.9102783,1.0564117,0.069485664,0
-1.0335846,1.1102905,0.19877338,0
-1.170044,1.1689453,-0.015505791,0
-1.1473083,1.0193024,-0.25732708,0
-1.1209717,0.75953674,-0.21542645,0
-1.0730896,0.5225067,0.06589985,0
-1.0072479,0.27470398,0.22271442,0
-0.87435913,-0.06765747,0.19756794,0
-0.80851746,-0.3633423,0.064694405,0
-0.82289124,-0.49742126,0.07067585,0
-0.95936584,-0.58361816,0.1401186,0
-1.0168152,-0.58122253,0.11855793,0
-0.97132874,-0.4232025,0.002453804,0
-0.9102783,-0.21011353,-0.074160576,0
-0.8959198,-0.068862915,0.24306965,0
-0.81451416,-0.054489136,0.2634096,0
-0.7378998,-0.071258545,-0.07536602,0
-0.70796204,-0.011398315,-0.25851727,0
-0.80374146,0.11190796,-0.08732891,0
-0.8348541,0.22442627,0.17841816,0
-0.97612,0.29985046,-0.0011472702,0
-1.1293488,0.31781006,-0.29085064,0
-1.1640625,0.23400879,-0.34350872,0
-1.1389313,-0.073654175,-0.062197685,0
-0.95936584,-0.39805603,-0.21661663,0
-0.58106995,-0.54888916,-0.49673748,0
-0.4553833,-0.5297394,-0.33513165,0
-0.56192017,-0.6410675,0.26101398,0
-0.4386139,-0.49742126,0.62733173,0
-0.37039185,-0.035339355,0.04433918,0
-0.56192017,-0.02696228,-0.25851727,0
-0.96414185,-0.13710022,0.60937214,0
-0.7845764,-0.068862915,0.29453754,0
-0.5439606,-0.18138123,-0.57335186,0
-0.778595,-0.37890625,0.43459797,0
-0.6121979,-0.34777832,0.6728182,0
-0.40150452,-0.25082397,-0.51948833,0
-0.6181793,-0.40045166,-0.071780205,0
-0.62776184,-0.57164,0.6512728,0
-0.49967957,-0.33700562,-0.45006084,0
-0.684021,-0.36694336,-0.8008146,0
-0.8863373,-0.47706604,0.33762836,0
-0.7295227,-0.25320435,0.15447712,0
-0.6696625,-0.20652771,-0.6296263,0
-0.9677429,-0.40524292,0.36517048,0
-0.82289124,-0.35855103,0.81527424,0
-0.5726929,-0.16223145,-0.42970562,0
-0.6505127,-0.20652771,-0.29802227,0
-0.61579895,-0.29510498,0.67042255,0
-0.37397766,-0.16223145,0.021603584,0
-0.18363953,-0.1382904,-0.703845,0
-0.25546265,-0.25920105,0.009625435,0
-0.29855347,-0.21969604,0.49924946,0
-0.27700806,-0.11314392,-0.15077496,0
-0.47573853,-0.2639923,-0.21782207,0
-0.6337433,-0.34777832,0.39869404,0
-0.48051453,-0.20054626,-0.081347466,0
-0.4386139,-0.14427185,-0.5709715,0
-0.56192017,-0.29870605,0.3974886,0
-0.52960205,-0.31666565,0.5243807,0
-0.42904663,-0.2831421,-0.3985777,0
-0.45777893,-0.36932373,-0.13641644,0
-0.38954163,-0.30947876,0.42382526,0
-0.32130432,-0.14308167,-0.059802055,0
-0.40750122,-0.18138123,-0.42970562,0
-0.6361389,-0.29270935,0.14130878,0
-0.6361389,-0.26159668,0.15208149,0
-0.44100952,-0.16342163,-0.51111126,0
-0.41348267,-0.21609497,-0.15077496,0
-0.4086914,-0.274765,0.4405794,0
-0.30455017,-0.27835083,0.10419941,0
-0.40150452,-0.30708313,0.1796236,0
-0.47573853,-0.3262329,0.55430317,0
-0.3189087,-0.24603271,-0.102892876,0
-0.20758057,-0.09638977,-0.74574566,0
-0.2387085,-0.064071655,-0.4368925,0
-0.2099762,-0.102371216,-0.0035429,0
-0.12258911,-0.114349365,-0.119662285,0
-0.23510742,-0.25320435,-0.10409832,0
-0.5164337,-0.4064331,0.36636066,0
-0.6912079,-0.36813354,0.3974886,0
-0.8169098,-0.2244873,-0.24774456,0
-0.99168396,-0.27355957,-0.15317059,0
-0.95936584,-0.26757812,0.3292513,0
-0.64930725,-0.21131897,0.107785225,0
-0.40150452,-0.14906311,-0.14718914,0
-0.22193909,-0.11553955,0.035962105,0
-0.090270996,-0.097595215,-0.043047905,0
0.007904053,-0.17658997,-0.10170269,0
-0.16807556,-0.2544098,0.18081379,0
-0.28659058,-0.24005127,0.15328693,0
-0.28300476,-0.12631226,-0.29683208,0
-0.43144226,-0.11793518,-0.38182354,0
-0.57748413,-0.18856812,0.14849567,0
-0.521225,-0.121536255,0.10419941,0
-0.347641,-0.02935791,-0.2716856,0
-0.25427246,-0.15744019,0.10659504,0
-0.129776,-0.2292633,0.45734882,0
-0.134552,-0.107162476,-0.13522625,1
-0.33566284,-0.12631226,-0.60927105,1
-0.59902954,-0.12991333,1.1205416,1
-0.34405518,-0.14427185,0.70634174,1
-0.12498474,-0.09399414,-0.6356077,1
-0.19322205,-0.14787292,-0.32077312,1
-0.34165955,-0.17539978,0.5052309,1
-0.29855347,-0.15504456,0.5016298,1
-0.24110413,-0.123931885,0.23467731,1
-0.29736328,-0.21730042,0.009625435,1
-0.4948883,-0.28074646,-0.19986248,1
-0.70558167,-0.2831421,-0.31239605,1
-0.89352417,-0.32025146,-0.28006268,1
-0.75823975,-0.1670227,-0.3076048,1
-0.51882935,-0.119140625,-0.069384575,1
-0.5104523,-0.33102417,0.29334736,1
-0.41467285,-0.28193665,-0.17233562,1
-0.26863098,-0.24482727,-0.28006268,1
-0.19322205,-0.0987854,-0.26570415,1
-0.32369995,-0.025756836,-0.42132854,1
-0.6469116,-0.07244873,-0.26689434,1
-0.8995056,0.019729614,-0.4153471,1
-1.0515289,0.15499878,-0.9648161,1
-1.2011719,0.15141296,-1.1910582,1
-1.3029327,0.09992981,-1.308383,1
-1.3819427,0.13943481,-1.6220121,1
-1.5076294,0.12866211,-1.8518553,1
-1.7530365,0.03529358,-1.3826017,1
-1.8356323,-0.22688293,-0.25493145,1
-1.6548767,-0.6913452,1.2031374,1
-1.1401215,-1.2216644,2.213498,1
-0.3069458,-1.4515076,2.5881777,1
0.52145386,-1.7268372,2.6037416,1
1.2050018,-1.4012299,2.150052,1
1.8562164,-0.5417175,1.533536,1
2.4116821,-0.16821289,0.85477924,1
2.3063354,-0.061676025,0.6800051,1
1.735321,0.008956909,0.89069843,1
1.2469025,-0.24603271,1.1899691,1
0.8123474,-0.46629333,1.0271578,1
0.41252136,-0.40045166,0.20715046,1
-0.3117218,-0.33221436,-0.31239605,1
-1.2155457,-0.42678833,-0.49075603,1
-1.9074707,-0.4698944,-0.84749126,1
-2.146881,-0.3561554,-1.1024809,1
-2.303711,-0.083221436,-1.0737486,1
-2.327652,0.09992981,-1.2401457,1
-2.051117,0.048461914,-1.5047026,1
-1.7482452,-0.06526184,-1.4197111,1
-1.5507202,-0.08680725,-1.0378294,1
-1.3137054,-0.054489136,-0.8893919,1
-1.1054077,-0.012588501,-0.85586834,1
-1.0826569,-0.064071655,-0.59968853,1
-0.9689331,-0.13710022,-0.57695293,1
-0.7594452,-0.26278687,-0.6834898,1
-0.39672852,-0.2364502,-0.48118877,1
-0.20399475,-0.13349915,-0.14958477,1
-0.22433472,-0.25559998,-0.047839165,1
-0.26264954,-0.29870605,0.21194172,1
-0.31292725,-0.17181396,0.38790607,1
-0.2710266,-0.17539978,0.6907778,1
-0.21237183,-0.21730042,0.632123,1
-0.15849304,-0.12033081,0.24546528,1
-0.04118347,-0.08442688,0.53875446,1
-0.025619507,0.0209198,0.90386677,1
0.16950989,0.17774963,0.6800051,1
0.3897705,0.20048523,0.63810444,1
0.48913574,0.24597168,0.69915485,1
0.5561676,0.29864502,0.21673298,1
0.4005432,0.18492126,0.32326984,1
0.13000488,0.31541443,0.4082613,1
0.012680054,0.44589233,0.06110859,1
-0.2099762,0.4028015,0.37235737,1
-0.4386139,0.32858276,0.6033907,1
-0.40390015,0.6374359,-0.23697186,1
-0.5571289,0.6278534,-0.7804594,1
-0.6864166,0.46983337,-0.1914854,1
-0.7618408,0.57518005,0.38911152,1
-0.43023682,0.7571411,-0.52188396,1
-0.48651123,0.68292236,-0.4488554,1
-0.5942383,0.28668213,0.004834175,1
-0.4841156,0.3632965,-0.26330853,1
-0.44100952,0.41955566,-0.48956585,1
-0.46855164,-0.040130615,0.112576485,1
-0.13575745,-0.34298706,-0.25134563,0
0.1108551,-0.37052917,-0.85467815,0
-0.21716309,-0.33221436,-0.08732891,0
-0.3799591,-0.22688293,0.913434,0
0.027053833,0.0783844,0.1628542,0
0.2090149,0.091552734,-0.61885357,0
0.3179474,0.6769409,-0.34231853,0
0.43167114,1.2754822,-0.05621624,0
-0.016036987,1.061203,0.33045673,0
-0.1812439,1.0875397,0.36636066,0
-0.2961731,1.5460358,-0.45125103,0
-0.7007904,0.5847626,-1.1132536,0
-0.8611908,0.26393127,0.40227985,0
-0.41467285,1.0564117,0.90147114,0
-0.1405487,0.44230652,-0.96242046,0
-0.30334473,-0.35855103,-0.24774456,0
0.38020325,0.0783844,0.6500826,0
0.63638306,0.007751465,0.17602253,0
0.29400635,-0.24961853,0.913434,0
0.7321472,0.4937744,0.65845966,0
0.572937,0.60032654,-0.23936749,0
0.2090149,0.44110107,0.7195101,0
0.50109863,0.8349457,0.9708986,0
0.48434448,1.0073395,-0.21303082,0
0.5166626,1.0097351,0.0060396194,0
0.6100464,1.3856201,0.3903017,0
0.07493591,1.0588074,-0.48956585,0
-0.3368683,0.79545593,0.19996357,0
-0.42544556,0.5847626,0.46214008,0
-0.74627686,-0.19454956,-0.5051298,0
-0.9258423,-0.57164,-0.34829998,0
-0.6110077,-0.5309448,-0.1627531,0
-0.64811707,-0.5620575,-0.23697186,0
-0.61698914,0.03768921,-0.13641644,0
-0.05316162,0.47343445,-0.4261198,0
0.2521057,0.67333984,-0.19507122,0
0.23654175,1.0971222,0.16524982,0
0.28323364,1.0995178,-0.4440794,0
0.07254028,0.858902,-0.6104765,0
-0.33328247,1.100708,0.07067585,0
-0.4194641,0.882843,-0.0047330856,0
-0.70796204,0.3166046,-0.15916729,0
-0.68162537,-0.068862915,0.23707294,0
-0.30574036,-0.28433228,0.28495502,0
-0.17884827,-0.23286438,0.41305256,0
0.22337341,-0.17779541,0.6345186,0
0.711792,0.101135254,0.12695026,0
0.5753174,0.52848816,-0.35190105,0
0.31315613,0.4542694,0.11378193,0
-0.0028686523,0.49258423,0.7685976,0
-0.2602539,0.71284485,0.419034,0
-0.43144226,0.70925903,-0.42251873,0
-0.7558594,0.5296936,-0.100497246,0
-0.466156,0.42913818,0.23348713,0
-0.16567993,0.49977112,-0.13522625,0
0.0066986084,0.17056274,-0.086138725,0
0.32632446,-0.1742096,0.074276924,0
0.23893738,-0.116744995,-0.41055584,0
0.0019073486,-0.24005127,-0.18550396,0
-0.032806396,-0.35736084,0.74226093,0
0.015075684,0.0209198,0.5351534,0
0.08929443,0.25315857,-0.2597227,0
-0.04597473,0.4219513,-0.27647686,0
-0.09146118,0.6206665,-0.18669415,0
-0.13096619,0.63983154,-0.37703228,0
-0.39312744,0.49137878,-0.10888958,0
-0.2207489,0.40759277,0.19517231,0
-0.095047,0.38963318,0.013226509,0
-0.10343933,0.18252563,-0.08255291,0
0.12162781,-0.016189575,0.26221943,0
0.24014282,-0.11553955,0.26461506,0
0.28323364,-0.24124146,0.04913044,0
0.3107605,-0.08680725,-0.1232481,0
0.13957214,0.067611694,-0.07776165,0
0.06535339,0.1873169,0.28495502,0
-0.09146118,0.4315338,0.47051716,0
-0.12617493,0.511734,0.2418642,0
-0.1453247,0.41836548,-0.30520916,0
-0.22912598,0.12387085,-0.640399,0
-0.14892578,0.008956909,-0.40695477,0
-0.16688538,0.03768921,0.3292513,0
-0.0016784668,-0.056884766,0.48966694,0
0.35864258,-0.099975586,-0.14479351,0
0.32632446,-0.1789856,-0.4440794,0
0.27844238,-0.21490479,0.17004108,0
0.201828,-0.05569458,0.4549532,0
0.13119507,-0.085617065,0.3101015,0
0.20063782,-0.04611206,0.11855793,0
0.1910553,-0.010192871,-0.05861187,0
0.16950989,-0.114349365,0.1688509,0
-0.18482971,-0.016189575,0.3962984,0
-0.25306702,0.031692505,0.15447712,0
-0.35961914,-0.02456665,-0.25732708,0
-0.3691864,-0.099975586,-0.36625957,0
-0.061538696,-0.012588501,-0.35309124,0
0.09768677,0.06880188,0.014416695,0
0.32392883,0.0149383545,0.30770588,0
0.44125366,0.0209198,0.17602253,0
0.24491882,-0.00541687,-0.1232481,0
0.20063782,-0.11793518,0.02758503,0
0.05218506,-0.04371643,0.32326984,0
-0.013656616,-0.016189575,0.17483234,0
-0.03878784,-0.028152466,-0.24895,0
0.016281128,-0.028152466,-0.29443645,0
0.058181763,0.093948364,-0.11606121,0
-0.12617493,0.18252563,-0.05861187,0
-0.036392212,0.089157104,0.0251894,0
0.10845947,0.0149383545,0.20715046,0
0.21858215,-0.03892517,0.28974628,0
0.36941528,-0.059280396,0.19637775,0
0.3215332,-0.121536255,0.100613594,0
0.31436157,-0.14187622,0.09461689,0
0.23774719,0.041275024,0.064694405,0
0.22697449,-0.013793945,0.093426704,0
0.16950989,0.0496521,0.17004108,0
0.11323547,0.070007324,0.14849567,0
0.12402344,0.072402954,-0.04663372,0
0.012680054,0.09274292,-0.51230145,0
-0.08547974,0.031692505,-0.4847746,0
-0.17047119,0.15979004,-0.3004179,0
-0.33328247,0.079589844,-0.107684135,0
-0.37516785,0.12626648,0.016812325,0
-0.57029724,0.17414856,-0.081347466,0
-0.5343933,0.21844482,0.008435249,0
-0.54156494,0.5045471,0.38073444,0
-0.40031433,0.56321716,0.39269733,0
-0.10223389,0.7272186,0.107785225,0
0.009094238,0.78826904,-0.14718914,0
0.11204529,0.80262756,-0.110079765,0
0.017471313,0.645813,0.1113863,0
0.09289551,0.472229,0.07307148,0
-0.09744263,0.33815002,-0.066988945,0
-0.1010437,-0.061676025,0.031170845,0
0.019866943,-0.22807312,0.4477663,0
0.06655884,-0.07723999,0.42142963,0
0.3323059,-0.01977539,-0.010714531,0
0.3095703,0.23999023,-0.36386395,0
0.3275299,0.30343628,-0.29443645,0
0.16950989,0.5440521,0.39869404,0
0.12281799,0.7044678,0.62972736,0
0.2305603,0.85650635,0.17483234,0
0.0043029785,0.84213257,-0.22140789,0
-0.13815308,0.7080536,-0.23936749,0
-0.5463562,0.4039917,-0.045443535,0
-0.37516785,0.19210815,-0.04423809,0
-0.3177185,0.4039917,-0.10888958,0
0.011489868,0.2770996,-0.3399229,0
0.07972717,0.3824463,-0.05382061,0
0.11923218,0.37287903,0.055111885,0
0.18984985,0.38484192,-0.088534355,0
-0.037597656,0.22563171,0.117367744,0
0.028244019,0.02331543,-0.1627531,0
-0.08068848,-0.030548096,-0.39020061,0
0.023452759,-0.35256958,-0.074160576,0
-0.13694763,-0.43397522,0.6393099,0
-0.039993286,-0.49742126,0.6919832,0
-0.18005371,-0.2244873,0.11378193,0
-4.8828125E-4,-0.08920288,-0.42251873,0
-0.08906555,0.0496521,-0.035861015,0
0.22097778,0.06163025,0.3855257,0
0.2197876,0.0017700195,0.12095356,0
0.19943237,-0.24243164,-0.13881207,0
0.03303528,-0.24961853,0.098217964,0
0.13240051,-0.088012695,0.083844185,0
0.3215332,-0.01977539,-0.33394146,0
0.34547424,-0.090408325,-0.31000042,0
0.2604828,-0.12631226,0.04433918,0
0.13000488,-0.11076355,-0.22380352,0
-0.2027893,-0.21250916,-0.090929985,0
-0.4446106,-0.2472229,0.4441805,0
-0.45178223,-0.010192871,-0.124453545,0
-0.3572235,0.084365845,-0.80798626,0
-0.4769287,-0.059280396,-0.32077312,0
-0.46495056,-0.121536255,0.20954609,0
-0.22793579,-0.14906311,0.012021065,0
-0.11779785,-0.27355957,0.17722797,0
0.11204529,-0.29989624,0.64887714,0
0.38497925,-0.121536255,0.1843996,0
0.43167114,-0.07963562,-0.30162334,0
0.26287842,-0.044921875,0.05871296,0
0.17070007,0.09036255,0.08504963,0
0.1156311,0.13464355,-0.38063335,0
-0.024429321,0.010147095,-0.41295147,0
-0.114212036,-0.07963562,-0.00833416,0
-0.19920349,-0.13230896,0.107785225,0
-0.2566681,-0.27716064,0.30531025,0
-0.24827576,-0.3034973,0.5124178,0
-0.0435791,-0.15026855,0.27538776,0
0.2197876,-0.1382904,0.02279377,0
0.41012573,-0.119140625,-0.0023374557,0
0.5837097,-0.05090332,-0.05142498,0
0.61602783,-0.123931885,0.05631733,0
0.5418091,-0.12991333,0.20596027,0
0.42448425,-0.090408325,0.17841816,0
0.28681946,-0.14187622,0.091031075,0
0.19584656,-0.097595215,-0.05621624,0
0.1802826,-0.05569458,-0.21303082,0
-0.0016784668,-0.11076355,-0.17950726,0
0.07972717,-0.16941833,-0.08015728,0
0.15634155,-0.12631226,-0.15317059,0
0.07733154,-0.109558105,-0.209445,0
-0.031600952,-0.21011353,0.14968586,0
-0.15849304,-0.1849823,0.52198505,0
-0.066329956,-0.16941833,0.3855257,0
-0.14294434,-0.24124146,0.103009224,0
-0.08547974,-0.20892334,-0.05861187,0
0.037826538,-0.104766846,-0.25253582,0
0.15992737,-0.004211426,-0.3686552,0
0.37660217,0.0209198,-0.13162518,0
0.33590698,-0.035339355,0.009625435,0
0.22697449,-0.15145874,0.07067585,0
-0.08187866,-0.31306458,0.28974628,0
-0.17765808,-0.29870605,0.41663837,0
-0.16688538,-0.18617249,0.103009224,0
-0.0435791,-0.099975586,-0.26570415,0
0.1730957,-0.07484436,-0.0011472702,0
0.30119324,-0.06048584,0.08025837,0
0.42687988,-0.06286621,-0.04184246,0
0.22457886,-0.16941833,0.31968403,0
0.19703674,-0.17181396,0.3507967,0
0.21739197,-0.14068604,-0.2034483,0
0.13719177,-0.03175354,-0.5206938,0
0.19584656,0.01612854,-0.3973875,0
0.12879944,-0.00541687,-0.27408123,0
0.21739197,-0.03652954,-0.112475395,0
0.17070007,-0.114349365,0.13053608,0
0.1515503,-0.15625,0.37235737,0
0.08331299,-0.2137146,0.39509296,0
-0.049560547,-0.1454773,-0.0322752,0
-0.16807556,-0.1275177,-0.107684135,0
-0.2387085,-0.07723999,-0.038256645,0
-0.055541992,-0.07244873,-0.12564373,0
0.007904053,-0.24243164,0.23946857,0
0.18507385,-0.34298706,0.62733173,0
0.3897705,-0.21730042,0.14610004,0
0.39935303,-0.0700531,-0.55780315,0
0.40174866,-0.092803955,-0.20823956,0
0.26646423,-0.044921875,0.17123127,0
0.35984802,0.012542725,-0.3686552,0
0.12521362,-0.0987854,-0.31239605,0
-0.10821533,-0.1789856,0.31249714,0
-0.16088867,-0.26039124,0.30172443,0
-0.42066956,-0.3406067,0.22390461,0
-0.38475037,-0.38967896,0.5746584,0
-0.27581787,-0.25920105,0.2717867,0
-0.1010437,-0.20892334,-0.18908978,0
-0.0723114,-0.15026855,-0.17473125,0
-0.044769287,-0.07963562,-0.07297039,0
0.055786133,-0.15026855,-0.0610075,0
-0.17884827,-0.20173645,0.11855793,0
-0.27581787,-0.29270935,0.26820087,0
-0.4553833,-0.3561554,0.13891315,0
-0.54756165,-0.29032898,-0.122057915,0
-0.57748413,-0.25082397,-0.081347466,0
-0.4673462,-0.15864563,-0.026278496,0
-0.14653015,-0.09638977,-0.12564373,0
0.012680054,-0.10357666,-0.18669415,0
0.10006714,-0.1670227,0.009625435,0
0.048599243,-0.12870789,0.18081379,0
0.040222168,-0.040130615,0.002453804,0
0.019866943,-0.18258667,0.17243671,0
-0.03878784,-0.18138123,0.3855257,0
0.12640381,-0.1382904,0.081448555,0
0.10725403,-0.19815063,-0.12085247,0
0.031845093,-0.07244873,-0.1519804,0
0.06416321,0.10951233,-0.28724957,0
-0.05076599,-0.02217102,0.02758503,0
-0.0040740967,-0.1849823,0.5231905,0
0.040222168,-0.2184906,0.40227985,0
-0.090270996,-0.33221436,0.2418642,0
-0.20639038,-0.3453827,0.32685566,0
-0.10702515,-0.14187622,0.0012483597,0
0.0761261,-0.023361206,-0.41174603,0
0.023452759,0.038879395,-0.39020061,0
0.06416321,0.07359314,-0.34471416,0
-0.0723114,0.008956909,-0.24055767,0
-0.37516785,-0.11076355,0.067090034,0
-0.38356018,-0.2544098,0.15328693,0
-0.37278748,-0.22209167,-0.050219536,0
-0.2494812,-0.22088623,-0.02748394,0
-0.22793579,-0.2687683,0.3903017,0
-0.14294434,-0.2184906,0.48008442,0
0.022262573,-0.24124146,0.33045673,0
-0.0016784668,-0.2137146,0.37115192,0
0.13000488,-0.12512207,0.15926838,0
0.19703674,-0.059280396,-0.074160576,0
0.10006714,-0.1454773,0.02279377,0
0.09408569,-0.12033081,0.12334919,0
0.09529114,-0.15625,-0.21542645,0
-0.030410767,-0.07963562,-0.5745573,0
-0.17884827,0.0041656494,-0.27647686,0
-0.23391724,-0.12631226,0.03477192,0
-0.41706848,-0.12272644,0.20834064,0
-0.6134033,-0.21969604,-0.114871025,0
-0.71395874,-0.47227478,-0.08732891,0
-0.91267395,-0.67578125,0.5231905,0
-0.5834656,-0.26997375,0.5303621,0
-0.31053162,-0.11076355,0.12334919,0
-0.21835327,-0.29032898,-0.17711163,0
-0.20159912,0.01612854,-0.33752728,0
-0.22793579,0.21006775,-0.7325773,0
-0.51882935,0.012542725,-0.38182354,0
-0.624176,-0.012588501,0.1341219,0
-0.24349976,0.06402588,-0.2992277,0
-0.23510742,-0.1670227,-0.56257915,0
-0.5463562,-0.40524292,0.20596027,0
-0.7271271,-0.62312317,0.78176594,0
-0.7905731,-0.8182373,1.1121645,0
-0.64930725,-0.8960571,1.3300295,0
-0.12138367,-0.75479126,0.77816486,0
0.25689697,-0.4243927,-0.07776165,0
0.1048584,0.012542725,-0.293231,0
-0.13215637,0.14781189,-0.16035748,0
-0.46136475,0.098739624,0.014416695,0
-0.5164337,0.050857544,0.08744526,0
-0.545166,-0.17658997,0.16166401,0
-0.9725342,-0.43876648,0.340024,0
-1.1520996,-0.5225525,-0.14239788,0
-1.1592712,-0.37171936,-0.5530119,0
-1.1401215,-0.25201416,-0.2202177,0
-0.90309143,-0.1897583,-0.093325615,0
-0.4374237,-0.12272644,-0.7026396,0
-0.3979187,-0.114349365,-0.85586834,0
-0.70318604,-0.1849823,-0.35309124,0
-0.97132874,-0.17539978,-0.0945158,0
-1.0252075,-0.12870789,-0.074160576,0
-1.0132294,-0.0700531,-0.1986723,0
-0.94140625,-0.05329895,-0.48717022,0
-0.82528687,-0.020980835,-0.49196148,0
-0.6900177,-0.07963562,-0.019106865,0
-0.565506,-0.1897583,0.3292513,0
-0.29496765,-0.16941833,0.28376484,0
0.013885498,-0.2687683,0.122159004,0
0.13957214,-0.32743835,0.26820087,0
-0.036392212,-0.26637268,0.4405794,0
-0.49128723,-0.27716064,0.45135212,0
-0.78219604,-0.3908844,0.48248005,0
-0.97013855,-0.33461,0.4298067,0
-0.84085083,-0.29989624,0.27657795,0
-0.46855164,-0.33700562,0.3101015,0
-0.29257202,-0.23286438,0.52198505,0
-0.116607666,-0.12033081,0.5279665,0
-0.04118347,-0.23765564,0.16166401,0
-0.09146118,-0.24482727,-0.23457623,0
-0.13934326,-0.19215393,-0.34350872,0
-0.2997589,-0.20652771,0.1915865,0
-0.4374237,-0.44714355,0.78893757,0
-0.5535431,-0.39926147,0.20954609,0
-0.7953644,-0.32025146,-0.6032896,0
-1.0263977,-0.41003418,-0.3758421,0
-0.99168396,-0.3453827,0.34840107,0
-0.6361389,-0.2687683,0.08504963,0
-0.30574036,-0.20652771,-0.31358624,0
0.0019073486,-0.19934082,-0.32675457,0
0.06895447,-0.01737976,-0.12085247,0
0.11323547,-0.020980835,0.13172626,0
0.09768677,-0.13110352,0.2310915,0
0.1156311,-0.04611206,-0.09930706,0
-0.031600952,-0.078430176,-0.5542021,0
-0.3943329,-0.29989624,0.09701252,0
-0.45777893,-0.45433044,0.829648,0
-0.13336182,-0.3956604,0.61895466,0
0.32034302,-0.23046875,0.32685566,0
0.6651001,-0.09638977,0.076672554,0
0.6974335,-0.044921875,-0.5099058,0
0.5058899,0.005355835,-0.9396696,0
0.07733154,-0.03175354,-1.0246611,0
-0.6552887,0.096343994,-0.45125103,0
-1.0108337,-0.07244873,0.28017902,0
-1.2765961,-0.29151917,0.8081026,0
-1.1365356,-0.5728302,0.44178486,0
-0.89352417,-0.42799377,-0.7517271,0
-0.62057495,-0.17658997,-0.7325773,0
-0.017242432,-0.04850769,0.3567934,0
0.70700073,0.14781189,0.67760944,0
1.2109833,0.2040863,-0.21782207,0
1.0206451,0.031692505,-0.45364666,0
0.27844238,-0.052093506,0.04673481,0
-0.3584137,-0.14666748,0.37354755,0
-0.584671,-0.032943726,0.29095173,0
-0.42425537,0.062820435,-0.08732891,0
-0.16209412,0.011352539,-0.5159025,0
0.019866943,-0.15264893,-0.043047905,0
-0.07948303,-0.21131897,0.810483,0
-0.21716309,-0.18377686,0.889493,0
-0.10462952,0.022125244,0.16645527,0
0.007904053,0.19569397,-0.38301373,0
-0.13815308,0.04246521,-0.31239605,0
-0.35961914,0.07119751,0.3112917,0
-0.4278412,0.098739624,0.4693117,0
-0.41227722,0.06880188,0.3496065,0
-0.29257202,0.122680664,0.15328693,0
-0.023223877,0.48420715,-0.39259624,0
0.13119507,0.65419006,-0.77925396,0
-0.11898804,0.51412964,-0.20106792,0
-0.14413452,0.48181152,0.5566988,0
-0.0723114,0.65419006,0.12814045,0
-0.15011597,0.6529999,-0.3590727,0
-0.095047,0.64460754,0.12334919,0
0.0066986084,0.8469238,0.21792316,0
-0.007659912,1.0109253,-0.32077312,0
-0.28179932,0.83135986,0.22271442,0
-0.16688538,0.8924103,0.38313007,0
-0.026824951,1.0264893,-0.25612164,0
-0.10462952,0.7894592,-0.47041607,0
-0.35243225,0.4434967,0.29693317,0
-0.1237793,0.02810669,0.39869404,0
0.12760925,-0.14666748,0.119763374,0
-0.033996582,-0.60635376,0.17722797,0
0.041412354,-0.75120544,0.671628,0
0.29400635,-0.104766846,0.2670107,0
0.2880249,0.093948364,-0.46441936,0
0.005508423,0.29864502,-0.014315605,0
0.05937195,0.7870636,0.103009224,0
-0.063934326,1.1833038,-0.21901226,0
-0.5272064,1.3461151,0.095822334,0
-0.600235,1.5053253,0.24425983,0
-0.8288727,1.3784332,-0.12922955,0
-0.77619934,1.1234589,-0.2609129,0
-0.8791504,0.7140503,-0.11366558,0
-0.6864166,0.22442627,-0.074160576,0
-0.48651123,0.10951233,0.107785225,0
-0.06871033,-0.22088623,-0.28724957,0
0.11444092,-0.092803955,0.023999214,0
0.36224365,0.16218567,0.0251894,0
0.53222656,0.40878296,-0.17113018,0
0.25689697,0.7104492,0.3783388,0
0.14915466,0.8553009,0.2526369,0
-0.30334473,1.0923309,0.17722797,0
-0.4565735,1.2072449,0.086239815,0
-0.7594452,1.3006287,-0.059802055,0
-0.7594452,1.1150818,-0.02748394,0
-0.72473145,0.9319153,0.20596027,0
-0.43623352,0.56440735,-0.074160576,0
-0.45178223,0.29386902,-0.052615166,0
-0.38954163,-0.08442688,0.19756794,0
-0.2207489,-0.13710022,0.2526369,0
-0.15011597,0.12986755,-0.098116875,0
0.045013428,0.36927795,-0.5314665,0
0.07493591,0.6673584,-0.17473125,0
0.29519653,0.9127655,-0.13762188,0
0.08331299,1.045639,0.35558796,0
0.25091553,1.0600128,0.56867695,0
0.20422363,1.0576172,0.22511005,0
0.042617798,0.77749634,-0.0035429,0
-0.39552307,0.5584259,0.3208742,0
-0.3907318,0.38842773,-0.055010796,0
-0.75823975,0.21965027,-0.30162334,0
-0.84443665,-0.05809021,-0.19507122,0
-0.7989502,0.14303589,0.03477192,0
-0.4769287,0.16098022,-0.095721245,0
-0.5343933,0.25914,-0.0657835,0
-0.32489014,0.393219,0.082654,0
-0.21955872,0.5703888,-0.05142498,0
-0.14413452,0.6769409,-0.093325615,0
-0.2315216,0.7762909,-0.02269268,0
-0.28060913,0.76672363,0.1688509,0
-0.44580078,0.7319946,0.18081379,0
-0.4960785,0.57518005,0.103009224,0
-0.679245,0.37765503,-0.07057476,0
-0.69241333,0.13824463,-0.015505791,0
-0.7223358,0.12866211,0.17722797,0
-0.60861206,0.08078003,0.1915865,0
-0.6038208,0.101135254,-0.0047330856,0
-0.44940186,0.2160492,0.119763374,0
-0.48770142,0.3644867,0.37354755,0
-0.46495056,0.34773254,0.28616047,0
-0.48770142,0.41716003,-0.22380352,0
-0.3368683,0.48660278,-0.2776823,0
-0.3404541,0.6134949,0.01560688,0
-0.2387085,0.63383484,-0.062197685,0
-0.37039185,0.4614563,-0.24774456,0
-0.40270996,0.26992798,5.8174133E-5,0
-0.5032654,0.24238586,0.18919086,0
-0.3943329,0.19091797,-0.04184246,0
-0.5092468,0.23999023,-0.12564373,0
-0.2494812,0.42674255,-0.19986248,0
-0.13575745,0.49856567,-0.293231,0
-0.007659912,0.52490234,0.007229805,0
-0.10462952,0.48660278,0.2705965,0
-0.055541992,0.43632507,0.27897358,0
-0.21356201,0.4039917,0.100613594,0
0.013885498,0.43032837,-0.16394329,0
0.005508423,0.4039917,-0.17352581,0
0.18386841,0.36090088,-0.15077496,0
0.061767578,0.34892273,0.2777834,0
0.1335907,0.30703735,0.42142963,0
0.12760925,0.22802734,0.24425983,0
0.0713501,0.25315857,-0.107684135,0
-0.17765808,0.28547668,-0.09212017,0
-0.3584137,0.3824463,-0.062197685,0
-0.3979187,0.4207611,-0.25732708,0
-0.37516785,0.472229,-0.17233562,0
-0.23391724,0.4147644,0.107785225,0
-0.056747437,0.33337402,0.082654,0
0.14556885,0.23999023,0.08984089,0
0.20541382,0.17295837,0.23467731,0
0.39575195,0.11907959,0.06350422,0
0.15274048,0.050857544,0.033566475,0
0.26646423,0.22203064,0.1401186,0
0.15394592,0.43870544,0.114972115,0
0.29519653,0.43392944,-0.098116875,0
0.09408569,0.45187378,-0.1807127,0
0.13838196,0.40519714,-0.16754436,0
0.12162781,0.38365173,0.24546528,0
0.27844238,0.37646484,0.2203188,0
0.37780762,0.35610962,0.119763374,0
0.5346222,0.28070068,-0.0047330856,0
0.5848999,0.3022461,-0.10409832,0
0.4292755,0.31181335,-0.050219536,0
0.39097595,0.26872253,0.1508913,0
0.27246094,0.2447815,-0.040652275,0
0.29759216,0.33216858,-0.34350872,0
0.0713501,0.28189087,-0.27647686,0
0.1335907,0.17295837,0.1448946,0
0.045013428,0.11907959,0.35319233,0
0.22337341,0.103530884,0.091031075,0
0.24971008,0.1250763,-0.095721245,0
0.3718109,0.26393127,-0.17233562,0
0.2999878,0.30703735,-0.17592144,0
0.18147278,0.28907776,0.05631733,0
0.13957214,0.24957275,0.32685566,0
0.09648132,0.15499878,0.1508913,0
0.14796448,0.12866211,-0.18429852,0
7.171631E-4,0.077194214,-0.23099041,0
0.10725403,0.079589844,-0.074160576,0
0.047409058,0.091552734,0.023999214,0
0.037826538,0.14183044,0.076672554,0
-0.17645264,0.13105774,0.28616047,0
-0.21595764,0.15141296,0.29693317,0
-0.2901764,0.15499878,0.02758503,0
-0.28778076,0.13105774,-0.21184063,0
-0.22912598,0.17056274,-0.3219633,0
-0.17645264,0.19929504,-0.32796,0
-0.060333252,0.18373108,0.071881294,0
-0.11779785,0.17056274,0.37235737,0
0.060577393,0.24238586,0.09701252,0
-0.023223877,0.32977295,0.002453804,0
-0.019638062,0.393219,0.122159004,0
-0.07948303,0.527298,0.033566475,0
-0.08906555,0.57518005,-0.15796185,0
-0.2207489,0.52848816,0.03237629,0
-0.41227722,0.40519714,0.15328693,0
-0.5140381,0.28070068,0.031170845,0
-0.61579895,0.15260315,0.05871296,0
-0.4960785,0.11907959,-0.043047905,0
-0.37756348,0.10232544,-0.34112835,0
-0.2722168,-0.06048584,-0.31358624,0
-0.3117218,-0.19096375,0.23348713,0
-0.3572235,-0.16821289,0.3208742,0
-0.38235474,-0.14906311,0.052731514,0
-0.45777893,-0.095199585,-0.033465385,0
-0.35961914,0.034088135,-0.071780205,0
-0.3943329,-0.02696228,0.035962105,0
-0.2961731,-0.111953735,0.34481525,0
-0.31411743,-0.15625,0.38073444,0
-0.2207489,-0.121536255,0.1688509,0
-0.29496765,-0.23165894,0.13891315,0
-0.3117218,-0.2244873,0.13651752,0
-0.26623535,-0.13110352,-0.20106792,0
-0.35243225,-0.15264893,-0.21303082,0
-0.39312744,-0.123931885,0.114972115,0
-0.48651123,-0.1382904,0.1448946,0
-0.59783936,-0.20173645,-0.07297039,0
-0.7271271,-0.28193665,-0.27528667,0
-0.58825684,-0.33700562,-0.4201231,0
-0.5439606,-0.27236938,-0.21063519,0
-0.46974182,-0.20532227,-0.023882866,0
-0.36439514,-0.24363708,0.045544624,0
-0.33566284,-0.29151917,0.07786274,0
-0.33926392,-0.22807312,0.03956318,0
-0.4733429,-0.274765,0.047940254,0
-0.4673462,-0.32862854,0.05871296,0
-0.61938477,-0.34179688,0.088635445,0
-0.63134766,-0.32144165,-0.12085247,0
-0.7151489,-0.3908844,-0.2321806,0
-0.67085266,-0.35855103,-0.2321806,0
-0.64212036,-0.3453827,-0.3111906,0
-0.6110077,-0.4423523,0.008435249,0
-0.44100952,-0.55249023,0.5626955,0
-0.308136,-0.5620575,0.7123232,0
-0.18962097,-0.61354065,0.1401186,0
-0.33447266,-0.5704498,-0.29562664,0
-0.47094727,-0.24124146,-0.38421917,0
-0.6505127,-0.121536255,-0.42851543,0
-0.62657166,-0.116744995,-0.23697186,0
-0.6229706,-0.22688293,-0.055010796,0
-0.61698914,-0.43637085,0.06350422,0
-0.679245,-0.5764313,0.44297504,0
-0.62657166,-0.532135,0.44657612,0
-0.37756348,-0.40524292,0.04913044,0
-0.22433472,-0.24363708,-0.19986248,0
-0.047164917,-0.13110352,-0.17950726,0
-0.054351807,-0.23165894,0.03956318,0
-0.049560547,-0.35736084,0.45016193,0
-0.033996582,-0.43276978,0.4154482,0
-0.020828247,-0.4303894,0.071881294,0
-0.09385681,-0.38249207,-0.12683392,0
-0.24229431,-0.3633423,-0.2429533,0
-0.34405518,-0.3848877,-0.22500896,0
-0.62657166,-0.44474792,0.23229694,0
-0.62657166,-0.4638977,0.39150715,0
-0.57987976,-0.49383545,0.13293171,0
-0.44221497,-0.4710846,-0.12683392,0
-0.3859558,-0.4064331,-0.08972454,0
-0.16209412,-0.2867279,-0.05382061,0
-0.11898804,-0.25201416,-0.122057915,0
-0.20039368,-0.2292633,-0.16156292,0
-0.44221497,-0.20532227,-0.050219536,0
-0.881546,-0.41122437,0.19039631,0
-0.8360596,-0.43995667,0.29095173,0
-0.58825684,-0.19335938,0.028775215,0
-0.28778076,-0.092803955,-0.18669415,0
-0.18962097,-0.38249207,-0.21542645,0
-0.23510742,-0.31427002,-0.2896452,0
-0.26983643,-0.23046875,-0.21542645,0
-0.16088867,-0.13110352,0.33045673,0
-0.174057,-0.02456665,0.45734882,0
-0.13694763,-0.06526184,0.08984089,0
-0.16448975,-0.26997375,-0.18908978,0
-0.27581787,-0.41482544,0.059903145,0
-0.26504517,-0.38249207,0.40227985,0
-0.28179932,-0.24243164,0.2203188,0
-0.24708557,-0.20292664,-0.016711235,0
-0.3177185,-0.15504456,-0.05382061,0
-0.37876892,-0.10836792,-0.107684135,0
-0.57748413,-0.18019104,-0.13162518,0
-0.565506,-0.13110352,-0.18908978,0
-0.5643158,-0.15026855,-0.3111906,0
-0.45059204,-0.2184906,-0.28006268,0
-0.40390015,-0.2867279,-0.076556206,0
-0.33447266,-0.32504272,0.13293171,0
-0.31532288,-0.29032898,0.28017902,0
-0.24468994,-0.12991333,0.20116901,0
-0.18843079,-0.10118103,0.23827839,0
-0.08906555,-0.080825806,0.32685566,0
0.034240723,-0.07484436,0.03477192,0
-0.09625244,-0.11793518,-0.19627666,0
-0.28778076,-0.13948059,-0.10170269,0
-0.56073,-0.13230896,-0.033465385,0
-0.5715027,-0.2137146,-0.117266655,0
-0.4158783,-0.30947876,-0.15437603,0
-0.129776,-0.1849823,-0.14000225,0
-0.0723114,-0.08203125,-0.12803936,0
-0.029205322,-0.10357666,0.28616047,0
-0.18243408,-0.195755,0.7302828,0
-0.14892578,-0.24842834,0.3687563,0
-0.25187683,-0.20892334,-0.24415874,0
-0.20758057,-0.028152466,-0.39978313,0
-0.11300659,0.0017700195,-0.05861187,0
-0.12738037,-0.104766846,0.16764545,0
-0.20039368,-0.20532227,-0.05621624,0
-0.39312744,-0.25920105,-0.08015728,0
-0.45178223,-0.33700562,0.30531025,0
-0.52241516,-0.24961853,0.2813692,0
-0.3991089,0.002960205,-0.0370512,0
-0.3799591,0.21246338,-0.3004179,0
-0.25785828,0.35850525,-0.30520916,0
-0.38235474,0.30943298,-0.48118877,0
-0.45178223,0.11907959,-0.56976604,0
-0.545166,0.03529358,0.098217964,0
-0.41827393,-0.11553955,0.85358906,0
-0.36080933,-0.38967896,1.2558107,0
-0.05076599,-0.5931854,1.166028,0
0.35984802,-0.65663147,0.61176777,0
0.45082092,-0.42080688,0.06110859,0
0.42208862,-0.018585205,-0.57335186,0
0.39456177,0.44828796,-0.8498869,0
0.4256897,0.75234985,-0.39618206,0
0.29400635,0.74516296,-0.009524345,0
0.050994873,0.42315674,-0.40097332,0
-0.47094727,0.079589844,-0.72897625,0
-0.624176,-0.33581543,0.7326784,0
-1.1389313,-0.3633423,0.5566988,0
-1.197586,-0.21250916,-0.5446348,0
-1.0850525,0.04008484,-0.76848125,0
-0.7774048,0.23880005,-0.06817913,0
-0.41348267,0.37287903,0.36277485,0
0.012680054,0.4494934,0.10180378,0
0.028244019,0.3309784,-0.05142498,0
-0.09864807,0.1250763,0.27897358,0
-0.22314453,0.017333984,0.36517048,0
-0.14772034,0.017333984,0.110180855,0
0.028244019,0.14064026,-0.00593853,0
0.22697449,0.2914734,-0.2824583,0
0.22218323,0.34892273,-0.24774456,0
0.10606384,0.33695984,-0.16156292,0
0.017471313,0.2447815,0.0539217,0
-0.023223877,0.1645813,0.50762653,0
0.09648132,0.1933136,0.6057863,0
7.171631E-4,0.23999023,0.23229694,0
-0.09146118,0.15620422,0.076672554,0
-0.2602539,0.21725464,0.23348713,0
-0.07470703,0.3249817,0.14729023,0
0.018676758,0.35610962,0.1628542,0
0.20063782,0.3704834,0.0036439896,0
0.22337341,0.34654236,0.11855793,0
0.22337341,0.25196838,0.54952717,0
0.050994873,0.19689941,0.24067402,0
-0.013656616,0.21965027,-0.58772564,0
-0.20399475,0.30464172,-0.61285686,0
-0.29257202,0.43632507,-0.45843792,0
-0.584671,0.4099884,-0.16873455,0
-1.0180206,0.17654419,0.2490511,0
-0.9378052,0.101135254,0.46093464,0
-0.44940186,0.16697693,0.44537067,0
0.18984985,0.17175293,0.2526369,0
0.70939636,0.4494934,-0.23099041,0
1.0410004,0.63264465,-0.5170927,0
0.60165405,0.53448486,-0.07057476,0
0.10964966,0.28907776,0.28974628,0
-0.35482788,0.09274292,0.19877338,0
-0.7798004,-0.05809021,-0.04902935,0
-1.217926,-0.26278687,-0.02748394,0
-1.0252075,-0.2077179,-0.1807127,0
-0.7019806,0.012542725,-0.36146832,0
-0.4086914,0.117889404,-0.38301373,0
-0.1058197,0.1645813,-0.18669415,0
0.09529114,0.32260132,-0.047839165,0
0.21380615,0.38365173,0.076672554,0
0.13000488,0.3309784,0.17483234,0
0.09648132,0.21246338,0.18320942,0
-0.111816406,0.086761475,0.33045673,0
-0.22912598,0.026916504,0.4872713,0
-0.25904846,-0.116744995,0.34721088,0
-0.054351807,-0.20173645,-0.11606121,0
0.04978943,-0.13110352,-0.13162518,0
0.10845947,-0.009002686,0.05152607,0
0.12640381,0.07359314,0.23827839,0
0.26885986,0.175354,-0.10409832,0
0.32392883,0.20527649,-0.5099058,0
0.11323547,0.05683899,-0.0945158,0
0.16590881,-0.049697876,0.4549532,0
0.3095703,0.065216064,0.124554634,0
0.42687988,0.21485901,-0.6978636,0
0.29519653,0.12626648,-0.87263775,0
0.10845947,0.10472107,-0.44168377,0
-0.14653015,0.06642151,0.09461689,0
-0.28419495,-0.15864563,0.711133,0
-0.3177185,-0.38130188,1.0499086,0
-0.17884827,-0.26757812,0.1628542,0
-0.18843079,-0.2077179,-0.5206938,0
-0.32130432,-0.071258545,0.043148994,0
-0.014846802,0.0209198,0.32566547,0
0.16471863,-0.013793945,0.012021065,0
0.24133301,-0.16581726,0.031170845,0
0.14556885,-0.30229187,0.24546528,0
-0.22793579,-0.119140625,0.20596027,0
-0.5523529,-0.08920288,-0.12803936,0
-0.8456421,-0.2137146,-0.0945158,0
-0.87675476,-0.27355957,0.013226509,0
-0.8216858,-0.32383728,0.016812325,0
-0.778595,-0.2472229,0.13532734,0
-0.6720581,-0.012588501,0.12574482,0
-0.26264954,0.06880188,-0.48356915,0
-0.007659912,0.055633545,-0.34231853,0
0.20541382,-0.1382904,0.2705965,0
0.49272156,-0.38848877,0.5016298,0
0.34907532,-0.35017395,0.43938923,0
0.26527405,-0.2939148,0.008435249,0
0.046203613,-0.3226471,0.11617756,0
-4.8828125E-4,-0.23526001,0.23827839,0
0.1515503,-0.2472229,-0.110079765,0
0.22697449,-0.26278687,-0.2034483,0
0.162323,-0.16462708,0.009625435,0
0.040222168,-0.12033081,-0.29085064,0
-0.11061096,-0.2077179,-0.17113018,0
-0.2782135,-0.32504272,0.30291462,0
-0.14653015,-0.3848877,0.2023592,0
-0.15011597,-0.42678833,-0.02508831,0
-0.054351807,-0.32862854,-0.26928997,0
-0.11779785,-0.20892334,-0.24534893,0
0.025848389,-0.08442688,-0.34829998,0
0.12162781,-0.12272644,-0.38421917,0
0.15992737,-0.21490479,-0.18310833,0
0.10006714,-0.2975006,0.1401186,0
0.010284424,-0.3549652,-0.0071287155,0
-0.06512451,-0.41722107,0.18200397,0
-0.18363953,-0.374115,0.33285236,0
-0.07710266,-0.46510315,0.007229805,0
-0.174057,-0.33700562,-0.010714531,0
0.009094238,-0.2292633,-0.04902935,0
0.11204529,-0.1670227,0.19637775,0
0.37420654,-0.05090332,0.4477663,0
0.54299927,-0.032943726,0.3172884,0
0.5250397,-0.14787292,0.23707294,0
0.38858032,-0.35377502,0.48008442,0
0.27963257,-0.4243927,0.41784382,0
0.35864258,-0.4603119,0.16524982,0
0.37660217,-0.3226471,-0.23578167,0
0.3287201,-0.16821289,-0.33873272,0
0.04978943,-0.04850769,-0.16633892,0
-0.13575745,-0.13349915,0.18560505,0
-0.22673035,-0.31066895,0.6225405,0
-0.15609741,-0.4028473,0.39988422,0
-0.24229431,-0.26757812,-0.4368925,0
-0.14413452,-0.1454773,-0.94565105,0
-0.21116638,-0.095199585,-0.58772564,0
-0.12498474,-0.095199585,-0.069384575,0
0.05218506,-0.09638977,0.2598238,0
0.201828,-0.1275177,0.48966694,0
0.11802673,-0.16223145,0.65487385,0
-0.031600952,-0.097595215,0.2670107,0
-0.1237793,-0.14787292,0.27538776,0
-0.012451172,-0.16941833,0.37354755,0
0.37420654,-0.2077179,0.16405964,0
0.57891846,-0.13230896,-0.00833416,0
0.6938324,-0.07963562,0.098217964,0
0.6220093,-0.06048584,0.04433918,0
0.60765076,-0.020980835,-0.15556622,0
0.4089203,0.055633545,-0.1340208,0
0.30596924,-0.032943726,-0.090929985,0
0.09529114,-0.17658997,0.05871296,0
0.06655884,-0.15864563,-0.14718914,0
-0.08308411,-0.06765747,-0.37703228,0
-0.054351807,0.022125244,-0.39140606,0
-0.07589722,0.05683899,-0.64519024,0
0.047409058,-0.004211426,-0.6930723,1
-0.1453247,-0.1275177,0.83562946,1
-0.06871033,-0.04850769,0.82604694,1
0.06416321,-0.07723999,-0.24774456,1
-4.8828125E-4,-0.05090332,-0.1412077,1
0.011489868,-0.090408325,0.46093464,1
-0.24468994,-0.16223145,0.6800051,1
-0.29257202,-0.27236938,0.31608295,1
-0.26623535,-0.07963562,-0.08732891,1
-0.15132141,0.0065612793,-0.15796185,1
-0.24349976,0.026916504,-0.07776165,1
-0.13215637,-0.0413208,-0.2501402,1
-0.23033142,-0.11314392,0.02039814,1
-0.20639038,-0.06765747,0.15806293,1
-0.17047119,0.008956909,-0.03944683,1
-0.0723114,0.005355835,-0.2716856,1
-0.07350159,-0.03175354,-0.10888958,1
-0.04597473,0.06163025,-0.059802055,1
0.03303528,0.079589844,-0.21661663,1
0.0761261,0.09753418,-0.043047905,1
0.10127258,0.07359314,0.1448946,1
0.07493591,0.07119751,0.12695026,1
0.23893738,5.79834E-4,0.026394844,1
0.18386841,0.13105774,-0.0610075,1
0.2425232,0.0783844,-0.37105083,1
0.027053833,-0.109558105,-0.13762188,1
-0.035202026,-0.28193665,0.22750568,1
-0.19560242,-0.27716064,0.5746584,1
-0.24708557,-0.27716064,0.6045809,1
-0.52241516,-0.26278687,0.48847675,1
-0.58706665,-0.2077179,0.062298775,1
-0.86598206,-0.21730042,0.06589985,1
-0.8863373,-0.195755,0.15208149,1
-0.68162537,-0.097595215,0.004834175,1
-0.35601807,-0.071258545,0.050335884,1
-0.036392212,-0.11076355,0.20116901,1
0.22097778,0.065216064,-0.045443535,1
0.42448425,0.043670654,-0.34350872,1
0.419693,0.019729614,0.03237629,1
0.45561218,0.03529358,0.0036439896,1
0.47117615,0.043670654,-0.3363371,1
0.41131592,-0.11076355,-0.07776165,1
0.16113281,-0.07963562,0.2670107,1
0.10366821,-0.04371643,-0.076556206,1
-0.12498474,-0.14906311,0.0012483597,1
-0.13215637,-0.17181396,0.20475483,1
-0.15969849,-0.08680725,-0.1340208,1
-0.16926575,-0.14787292,-0.33154583,1
-0.3189087,-0.13110352,-0.011919975,1
-0.22433472,-0.03414917,-0.0071287155,1
-0.30934143,-0.076034546,0.08984089,1
-0.2494812,-0.073654175,0.19279194,1
-0.20159912,-0.11553955,0.08025837,1
-0.22193909,-0.09399414,-0.119662285,1
-0.26863098,-0.119140625,0.04433918,1
-0.28300476,-0.078430176,0.27418232,1
-0.24229431,-0.18258667,0.32207966,1
-0.19560242,-0.13349915,-0.019106865,1
-0.14653015,-0.116744995,-0.25253582,1
-0.22314453,-0.07723999,0.02279377,1
-0.060333252,-0.08920288,0.08504963,1
-0.049560547,-0.06765747,-0.076556206,1
0.012680054,-0.04611206,-0.14239788,1
-0.10702515,0.041275024,-0.1519804,1
-0.037597656,0.067611694,-0.35667706,1
-0.11898804,0.05204773,-0.3590727,1
0.011489868,0.04486084,-0.32435894,1
0.08810425,0.019729614,0.013226509,1
0.28562927,-0.08680725,0.48608112,1
0.35624695,-0.114349365,0.5231905,1
0.49032593,-0.12272644,-0.110079765,1
0.17907715,-0.06048584,-0.29802227,1
7.171631E-4,0.017333984,0.069485664,1
-0.047164917,-0.05569458,0.39150715,1
-0.0064697266,-0.095199585,0.26580524,1
0.018676758,-0.24005127,0.15328693,1
-0.07710266,-0.22688293,0.17722797,1
-0.27581787,-0.090408325,0.25861835,1
-0.52241516,-0.056884766,0.41784382,1
-0.624176,-0.123931885,0.49206257,1
-0.7774048,-0.06526184,0.17602253,1
-0.7905731,-0.14666748,-0.0023374557,1
-0.97372437,-0.35256958,-0.0657835,1
-0.86239624,-0.43397522,-0.34590435,1
-0.6253662,-0.21011353,-0.52307415,1
-0.47094727,0.086761475,-0.15916729,1
-0.4230652,0.33337402,0.25144672,1
-0.34284973,0.41955566,0.25742817,1
-0.17047119,0.4686432,-0.10409832,1
-0.057937622,0.57159424,-0.33513165,1
0.07254028,0.40878296,-0.3578825,1
0.15274048,0.14901733,-0.0047330856,1
-0.13096619,0.3058319,0.4693117,0
-0.026824951,0.36688232,0.2203188,0
0.4089203,0.59432983,-0.9492521,0
0.46398926,1.0408478,-1.0282621,0
-0.15132141,1.0552216,0.20954609,0
-0.53318787,0.80023193,0.6345186,0
-0.48051453,0.7176361,-0.1914854,0
-0.4565735,0.7870636,-0.7900419,0
-0.5343933,0.47583008,-0.17592144,0
-0.3691864,0.1466217,0.54353046,0
-0.21356201,0.31420898,0.6536684,0
-0.037597656,0.12986755,0.1293459,0
-0.19920349,-0.06286621,0.35918903,0
0.060577393,-0.23165894,0.8607607,0
0.24491882,0.21246338,0.34241962,0
0.31436157,0.38365173,-0.45006084,0
0.4376526,0.47702026,-0.44645977,0
0.03543091,0.8660736,0.513608,0
0.06295776,1.1330261,0.5124178,0
-0.17286682,1.1258545,-0.16754436,0
-0.24349976,0.9486847,-0.37105083,0
-0.5068512,1.0420532,-0.14000225,0
-0.45896912,0.74038696,-0.21542645,0
-0.6361389,0.45547485,-0.3291502,0
-0.45178223,0.19210815,-0.41055584,0
-0.09864807,0.55722046,-0.5422392,0
-0.0016784668,0.28070068,0.023999214,0
0.26646423,0.19569397,0.4298067,0
0.12402344,0.6194763,0.75780964,0
0.23535156,0.81100464,0.30412006,0
-0.066329956,0.91516113,0.18919086,0
-0.17884827,0.83973694,-0.05861187,0
-0.41108704,1.0420532,-0.24534893,0
-0.32728577,1.0145111,-0.0011472702,0
-0.5164337,1.021698,0.4405794,0
-0.38116455,0.7655182,0.45135212,0
-0.5535431,0.6709442,0.19637775,0
-0.31411743,0.39801025,-0.37823772,0
-0.111816406,0.48779297,-0.39378643,0
-0.1812439,0.12147522,-0.102892876,0
-0.06272888,0.47462463,-0.288455,0
-0.057937622,1.2359772,0.012021065,0
-0.22673035,1.3125916,0.6237459,0
-0.14772034,0.86009216,0.8559847,0
0.14556885,0.8229828,-0.3111906,0
0.06774902,0.6817169,-0.679904,0
0.17907715,0.6865082,0.18200397,0
0.22576904,0.764328,1.0534945,0
0.56095886,0.92832947,0.37473774,0
0.4867401,0.90797424,-0.14239788,0
0.4651947,0.8720703,-0.3590727,0
0.048599243,0.5440521,-0.33513165,0
-0.2997589,0.5811615,0.0060396194,0
-0.90190125,0.48779297,0.028775215,0
-0.8348541,0.76312256,-0.8498869,0
-1.2023773,1.0133209,-0.7409544,0
-1.1018219,0.8337555,0.19756794,0
-1.1161804,0.7834778,1.300107,0
-0.53079224,0.9043884,0.69796467,0
0.12162781,0.54286194,-0.30879498,0
0.83628845,0.7140503,-0.40336895,0
1.1786652,1.037262,-0.38301373,0
1.067337,1.1186676,-0.66792583,0
0.65193176,0.8122101,-0.39618206,0
0.07972717,0.669754,0.20116901,0
-0.25546265,0.56321716,1.0774355,0
-0.7714081,0.80262756,1.1241274,0
-0.95217896,0.9786072,0.15568256,0
-1.130539,0.85050964,-0.63800335,0
-0.9330292,0.83854675,-0.4045744,0
-0.584671,0.56082153,0.10899067,0
-0.042373657,0.47583008,0.72669697,0
0.5884857,0.65419006,0.57825947,0
0.8111572,0.966629,-0.35309124,0
0.533432,1.1198578,-0.31956768,0
0.10845947,1.021698,0.13053608,0
-0.09625244,1.1354218,0.17483234,0
-0.5427704,0.5656128,-0.32675457,0
-0.67445374,0.23519897,-1.1683226,0
-0.64212036,0.4315338,-0.6930723,0
-0.59783936,0.7822876,0.3280611,0
-0.4374237,1.203659,1.3767214,0
-0.20877075,1.116272,1.1696138,0
0.27485657,0.9750061,-0.0610075,0
0.41131592,0.8983917,-1.1407804,0
0.32392883,0.92593384,-1.0222654,0
0.10845947,0.74876404,0.15328693,0
-0.011260986,0.8349457,0.9361849,0
0.22576904,1.061203,0.6057863,0
0.19943237,1.1569672,-0.23697186,0
-0.090270996,1.0899353,0.13891315,0
-0.5738983,0.903183,0.50762653,0
-0.7702179,0.7463684,0.20475483,0
-0.51882935,0.6889038,-0.078951836,0
-0.2099762,0.88523865,-0.31358624,0
0.061767578,0.8924103,-0.31956768,0
0.15513611,0.8301697,0.1628542,0
0.21141052,1.021698,0.46333027,0
0.47836304,1.1270447,0.12574482,0
0.64476013,1.0659943,-0.5135069,0
0.6507416,0.86128235,-0.6104765,0
0.43525696,0.8349457,-0.07057476,0
0.08570862,0.8050232,0.7219057,0
-0.12857056,0.8756561,0.9900484,0
-0.23391724,1.037262,0.2777834,0
-0.30215454,1.0085297,-0.8020048,0
-0.4553833,0.8720703,-1.1336088,0
-0.52960205,0.73799133,-0.25493145,0
-0.30934143,0.7355957,0.834424,0
0.12879944,0.7164459,0.8164797,0
0.31436157,0.8983917,-0.021502495,0
0.38497925,0.9965668,-0.8055906,0
0.08929443,0.91156006,-0.5027342,0
-0.15969849,0.76312256,0.8966799,0
7.171631E-4,0.7104492,1.2749605,0
0.15394592,0.74038696,0.1113863,0
0.36582947,0.8948059,-1.1180449,0
0.3179474,1.1150818,-0.8570738,0
0.17070007,1.1318359,-0.055010796,0
0.18386841,0.96902466,0.004834175,0
0.25569153,0.724823,-0.112475395,0
0.34786987,0.6087036,-0.08494854,0
0.12521362,0.76672363,0.18560505,0
-0.09983826,0.9043884,0.36396503,0
-0.26264954,0.7439728,0.21073627,0
-0.33805847,0.79185486,-0.14599895,0
-0.22912598,0.7391815,-0.37105083,0
-0.020828247,0.54525757,-0.074160576,0
-0.07589722,0.6972809,0.81766987,0
-0.04118347,0.858902,0.74703693,0
0.17668152,0.7056732,-0.40695477,0
0.34188843,0.5727844,-1.1144438,0
0.42448425,0.73799133,-0.956439,0
0.61842346,0.6960907,0.1293459,0
0.9165039,0.6266632,1.2306643,0
1.0373993,0.72361755,1.0451174,0
1.0050812,0.5332794,-0.24655437,0
0.74890137,0.15020752,-0.64996624,0
0.15992737,-0.04850769,-0.1340208,0
-0.32369995,-0.052093506,0.41663837,0
-0.40750122,-0.023361206,0.78654194,0
-0.20039368,0.18492126,0.3280611,0
0.1108551,0.3309784,-0.3590727,0
0.3275299,0.34892273,-0.35667706,0
0.3275299,0.110702515,-0.015505791,0
0.41131592,0.14422607,-0.0047330856,0
0.7321472,0.3357544,-0.038256645,0
1.1930237,0.4219513,-0.37703228,0
1.1343689,0.36209106,-0.49315166,0
0.72016907,0.24359131,-0.31717205,0
0.05697632,0.14422607,0.05631733,0
-0.49128723,0.05923462,0.28735065,0
-0.6612854,-0.08680725,0.20356464,0
-0.46136475,-0.07244873,-0.04423809,0
-0.19799805,-0.049697876,0.18081379,0
0.14556885,-0.11553955,0.38790607,0
0.3394928,-0.2364502,0.038357735,0
0.4771576,-0.1789856,-0.32435894,0
0.5549774,-0.054489136,-0.095721245,0
0.52864075,0.02810669,0.100613594,0
0.4879303,0.024520874,-0.28724957,0
0.3095703,0.05204773,-0.76489544,0
0.0043029785,-0.13470459,-0.2896452,0
-0.10343933,-0.32504272,0.70515156,0
0.06295776,-0.22688293,1.197156,0
0.40653992,-0.10118103,0.39869404,0
0.7429199,0.06642151,-0.8211546,0
0.7321472,0.2663269,-1.3526793,0
0.5561676,0.13105774,-0.8642607,0
0.25091553,-0.1454773,0.4549532,0
0.1443634,-0.31066895,1.4281893,0
0.2305603,-0.07723999,0.9457674,0
0.2532959,0.089157104,-0.14839458,0
0.15634155,-0.013793945,-0.4380827,0
0.08570862,0.043670654,-0.28126812,0
0.19943237,0.0496521,-0.40217876,0
0.43885803,-0.18138123,-0.37344646,0
0.6710968,-0.10118103,-0.15077496,0
0.72377014,0.0017700195,-0.18429852,0
0.5250397,-0.2472229,0.35200214,0
0.13479614,-0.25320435,0.869153,0
-0.21356201,-0.052093506,0.26820087,0
-0.3572235,-0.18377686,-0.84031963,0
-0.52001953,-0.36694336,-0.6427946,0
-0.59184265,-0.15145874,0.43938923,0
-0.28300476,-0.09159851,0.6500826,0
0.055786133,-0.07244873,0.16405964,0
0.43286133,0.077194214,-0.20704937,0
0.52264404,-0.083221436,-0.32435894,0
0.20780945,-0.46868896,-0.052615166,0
-0.25904846,-0.49383545,0.32685566,0
-0.426651,-0.27355957,0.7997103,0
-0.5128479,-0.15264893,0.58303547,0
-0.37756348,-0.09399414,-0.22978497,0
-0.34284973,0.077194214,-0.9288969,0
-0.11898804,0.050857544,-0.7816496,0
0.30358887,-0.28074646,0.082654,0
0.7189789,-0.40045166,0.60099506,0
1.0757141,-0.099975586,-0.21303082,0
0.94044495,0.1250763,-0.7337675,0
0.43286133,0.02571106,0.122159004,0
-0.14653015,-0.09159851,1.0558901,0
-0.505661,-0.27236938,0.5626955,0
-0.5643158,-0.3334198,-0.46202374,0
-0.36080933,-0.14187622,-0.90614605,0
-0.17884827,-0.083221436,-0.6284208,0
0.007904053,-0.2687683,0.46214008,0
0.33470154,-0.24603271,1.2402468,0
0.68904114,-0.042526245,0.72070026,0
0.81474304,-0.018585205,-0.42731,0
0.656723,-0.07723999,-0.78525066,0
0.2820282,-0.2292633,-0.27647686,0
-0.07350159,-0.42559814,0.5662813,0
-0.16209412,-0.32862854,0.81766987,0
-0.12857056,-0.083221436,0.2310915,0
-0.21595764,-0.009002686,-0.32796,0
-0.2710266,-0.05329895,-0.30401897,0
-0.055541992,0.002960205,-0.20823956,0
0.19824219,-0.030548096,-0.09691143,0
0.6028595,-0.14308167,0.07786274,0
0.79559326,-0.21011353,-0.081347466,0
0.7441101,-0.28433228,0.02279377,0
0.40293884,-0.2831421,0.51839924,0
0.14915466,-0.2639923,0.72788715,0
-0.174057,-0.14187622,0.062298775,0
-0.40989685,-0.18138123,-0.6942625,0
-0.5930481,-0.36694336,-0.62723064,0
-0.5858612,-0.32743835,0.1915865,0
-0.1812439,-0.1454773,0.34362507,0
0.24014282,-0.12631226,-0.27408123,0
0.43048096,-0.12272644,-0.7313719,0
0.3718109,-0.07244873,-0.6044798,0
0.24971008,-0.20292664,-0.045443535,0
0.12042236,-0.18737793,0.88351154,0
0.2772522,-0.12512207,0.5746584,0
0.32632446,-0.097595215,-0.62723064,0
0.18147278,-0.195755,-0.877429,0
-0.030410767,-0.22567749,0.17722797,0
0.0066986084,-0.23286438,1.2713747,0
0.1910553,-0.18737793,1.031949,0
0.36463928,-0.1275177,-0.26809978,0
0.27844238,-0.07484436,-0.8235502,0
-0.0016784668,0.013748169,-0.3399229,0
-0.23033142,-0.04611206,0.03237629,0
-0.19082642,-0.0987854,0.052731514,0
0.019866943,-0.22088623,-0.114871025,0
0.09169006,-0.3729248,-0.23338604,0
-0.055541992,-0.41003418,0.15328693,0
-0.07589722,-0.22328186,0.64050007,0
0.06895447,-0.080825806,0.22990131,0
0.22697449,-0.20652771,-0.46322918,0
0.37062073,-0.23046875,-0.4081602,0
0.5094757,-0.20413208,0.17123127,0
0.57891846,-0.2651825,0.5555086,0
0.5765228,-0.24842834,0.35439777,0
0.46398926,-0.23405457,-0.25253582,0
0.22697449,-0.24842834,-0.3303404,0
-0.039993286,-0.46868896,0.02758503,0
-0.29377747,-0.5644531,0.41305256,0
-0.37158203,-0.5105896,0.55430317,0
-0.35601807,-0.5297394,0.40586567,0
-0.3117218,-0.53334045,0.06350422,0
-0.26504517,-0.32504272,-0.5649748,0
-0.129776,-0.25320435,-0.9324827,0
0.07733154,-0.30229187,-0.61885357,0
0.3430786,-0.274765,0.062298775,0
0.4831543,-0.31066895,0.1688509,0
0.51786804,-0.37052917,0.10899067,0
0.30596924,-0.36454773,0.22869587,0
0.14796448,-0.3118744,0.15806293,0
0.11802673,-0.3262329,-0.21901226,0
0.22337341,-0.37532043,0.002453804,0
0.36582947,-0.44714355,0.49325275,0
0.43406677,-0.46629333,0.5854311,0
0.3275299,-0.4016571,-0.20704937,0
0.06535339,-0.38130188,-0.74335,0
-0.2901764,-0.44714355,-0.25612164,0
-0.44700623,-0.49383545,0.54113483,0
-0.19082642,-0.61354065,0.8188753,0
0.05937195,-0.6697998,0.26940632,0
0.06774902,-0.51538086,-0.29802227,0
0.03303528,-0.47706604,-0.22261333,0
0.06295776,-0.39805603,0.3579836,0
0.31315613,-0.38848877,0.4262209,0
0.6423645,-0.43756104,0.02039814,0
0.65792847,-0.46749878,-0.22859478,0
0.3107605,-0.43397522,-0.05621624,0
-0.14772034,-0.4423523,0.16166401,0
-0.45059204,-0.547699,0.41305256,0
-0.37516785,-0.52375793,0.26940632,0
0.018676758,-0.38130188,-0.5362425,0
0.38858032,-0.2831421,-1.0186796,0
0.4077301,-0.32025146,-0.32675457,0
0.35864258,-0.41960144,0.48608112,0
0.29161072,-0.5512848,0.5160036,0
0.23893738,-0.63508606,0.39269733,0
0.07733154,-0.6075592,0.114972115,0
-0.08308411,-0.56326294,0.0012483597,0
-0.13215637,-0.6614227,0.086239815,0
-0.022033691,-0.72247314,0.067090034,0
0.1048584,-0.5285492,-0.15916729,0
0.24612427,-0.41722107,-0.23697186,0
0.28323364,-0.57762146,-0.043047905,0
0.2987976,-0.6087494,0.062298775,0
0.36343384,-0.59199524,-0.0370512,0
0.39575195,-0.48425293,0.20596027,0
0.5525818,-0.59439087,0.40586567,0
0.50349426,-0.6877594,0.12334919,0
0.2987976,-0.65304565,-0.15437603,0
0.11802673,-0.69973755,0.002453804,0
0.021072388,-0.72128296,0.31489277,0
-0.037597656,-0.60276794,0.07307148,0
-0.0028686523,-0.5692444,-0.5673704,0
-0.24229431,-0.7859192,-0.2704954,0
-0.5726929,-0.9403534,0.42501545,0
-0.8288727,-0.95591736,0.52079487,0
-0.7522583,-0.96669006,-0.07536602,0
-0.56910706,-0.8733063,-0.37703228,0
-0.25546265,-0.6219177,-0.3758421,0
0.04978943,-0.7188873,-0.34471416,0
0.34547424,-0.77275085,0.117367744,0
0.572937,-0.81944275,0.41784382,0
0.72854614,-0.9331665,0.3687563,0
0.6854553,-1.0995636,0.31368732,0
0.5765228,-1.2084961,0.31847858,0
0.43286133,-1.270752,0.35200214,0
0.280838,-1.4826355,0.14370441,0
0.11923218,-1.6047363,0.18679523,0
0.018676758,-1.516159,0.300519,0
0.1443634,-1.4515076,0.095822334,0
0.2880249,-1.3509521,-0.19746685,0
0.45202637,-1.1091461,-0.5925169,0
0.46040344,-1.0672455,-0.7146177,0
0.24372864,-1.1654053,-0.32435894,0
-0.031600952,-1.2863159,0.040753365,0
-0.2889862,-1.3605347,0.13772297,0
-0.5930481,-1.5412903,0.25623798,0
-0.76542664,-1.6191101,0.45734882,0
-0.7211304,-1.5436859,0.30291462,0
-0.3859558,-1.5269318,0.03956318,0
0.12760925,-1.4156036,-0.11845684,0
0.7022095,-1.1558228,-0.074160576,0
1.1966248,-1.0373077,-0.026278496,0
1.2528839,-1.0684357,0.2418642,0
0.96318054,-1.0205536,0.1293459,0
0.7297516,-0.96429443,-0.49196148,0
0.3383026,-1.0708313,-0.6116667,0
-0.10223389,-0.8649292,0.02998066,0
-0.3296814,-0.65304565,-0.009524345,0
-0.46974182,-0.83380127,-0.35190105,0
-0.50205994,-1.0361176,-0.105288506,0
-0.42185974,-0.92718506,0.15447712,0
-0.25306702,-0.91760254,0.086239815,0
-0.057937622,-0.8972473,0.14130878,0
0.18984985,-0.85176086,0.002453804,0
0.20661926,-0.90922546,-0.2381773,0
0.07852173,-0.9451294,-0.026278496,0
-0.12019348,-0.9295807,0.29693317,0
-0.010055542,-0.9140167,0.119763374,0
0.18147278,-0.92837524,-0.21184063,0
0.33111572,-0.9511261,-0.19627666,0
0.27963257,-0.9415436,0.086239815,0
0.2880249,-0.97506714,0.33285236,0
0.36224365,-1.0061951,0.4441805,0
0.498703,-0.9247894,0.06350422,0
0.5741272,-0.8828888,-0.33154583,0
0.50349426,-0.90802,-0.14239788,0
0.49032593,-0.7392273,0.28735065,0
0.533432,-0.5309448,0.30770588,0
0.64834595,-0.40882874,0.004834175,0
0.6423645,-0.13230896,-0.23099041,0
0.50709534,0.02571106,-0.2824583,0
0.19584656,-0.14308167,0.11617756,0
0.06895447,-0.20173645,0.41305256,0
-0.07948303,-0.23405457,-0.015505791,0
-0.17765808,-0.27835083,-0.25612164,0
-0.22793579,-0.27835083,0.093426704,0
-0.25785828,-0.3046875,0.28735065,0
-0.27581787,-0.3561554,0.3280611,0
-0.09625244,-0.33700562,0.47051716,0
0.17430115,-0.26997375,0.41186237,0
0.23893738,-0.21250916,0.19279194,0
0.1503601,-0.15385437,-0.16633892,0
-0.025619507,-0.11314392,-0.45724773,0
-0.19799805,-0.07723999,-0.4775877,0
-0.34284973,-0.080825806,-0.23697186,0
-0.34284973,-0.030548096,-0.26928997,0
-0.1920166,0.093948364,-0.2609129,0
-0.13575745,0.0209198,0.031170845,0
0.013885498,-0.03892517,0.3867159,0
0.24133301,-0.083221436,0.24425983,0
0.5023041,-0.24961853,-0.08015728,0
0.6603241,-0.41960144,0.093426704,0
0.7213745,-0.33461,0.43938923,0
0.7524872,-0.20413208,0.22271442,0
0.7153778,-0.0987854,0.028775215,0
0.55856323,5.79834E-4,0.05631733,0
0.31555176,0.060424805,-0.12085247,0
0.16471863,0.01612854,-0.2202177,0
0.13240051,0.19450378,0.09940815,0
0.043807983,0.26153564,0.20116901,0
0.09768677,0.12866211,-0.013110161,0
0.08810425,0.22203064,-0.052615166,0
0.22576904,0.34294128,-0.38301373,0
0.25689697,0.16816711,-0.22859478,0
0.29640198,0.36569214,-0.1412077,0
0.38497925,0.6422272,-0.22500896,0
0.18984985,0.44589233,-0.253726,0
0.10366821,0.2830963,0.07786274,0
-0.15132141,0.48660278,0.38073444,0
-0.35362244,0.55722046,-0.07297039,0
-0.3691864,0.48779297,-0.043047905,0
-0.18005371,0.5763855,0.22990131,0
-0.10223389,0.69010925,-0.10649395,0
0.03543091,0.5656128,0.064694405,0
0.2197876,0.5093384,0.8799257,0
0.48075867,0.59313965,0.6931734,0
0.59806824,0.69369507,-0.0370512,0
0.48434448,0.5799713,-0.100497246,0
0.28323364,0.511734,0.21912861,0
0.20063782,0.5261078,0.035962105,0
0.11923218,0.6960907,-0.3111906,0
-0.060333252,0.6781311,-0.014315605,0
-0.059143066,0.55722046,0.3579836,0
0.2485199,0.31420898,0.25144672,0
0.33470154,0.77389526,-0.18429852,0
0.29400635,0.5919342,-0.50392437,0
0.22576904,0.23880005,-0.069384575,0
0.26168823,0.28907776,0.37115192,0
0.3502655,-0.03892517,-0.033465385,0
0.0713501,-0.28793335,0.22630024,0
-0.09385681,-0.32383728,0.6440859,0
-4.8828125E-4,-0.2184906,0.081448555,0
0.1048584,0.098739624,-0.4261198,0
0.44004822,0.01852417,-0.023882866,0
0.6687012,0.2040863,0.45614338,0
0.76805115,0.60272217,0.17123127,0
0.7309418,0.69369507,-0.5362425,0
0.37660217,0.69129944,-0.72420025,0
0.22097778,0.70088196,-0.30401897,0
-0.15371704,0.70207214,-0.035861015,0
-0.3691864,0.36808777,0.09461689,0
-0.41108704,0.3058319,0.20475483,0
-0.36080933,0.20288086,-0.064593315,0
-0.12617493,0.113098145,-0.31000042,0
0.07254028,0.26153564,0.12574482,0
0.46040344,0.120285034,0.46812153,0
0.5082855,0.35850525,0.300519,0
0.27604675,0.32737732,0.17602253,0
0.015075684,0.29266357,0.12814045,0
-0.20758057,0.31062317,0.19517231,0
-0.20639038,0.38963318,0.22750568,0
-0.3177185,0.5847626,0.08744526,0
0.058181763,0.74516296,-0.16994,0
0.23774719,0.7966461,-0.28006268,0
0.34069824,0.55363464,-0.24055767,0
0.47117615,0.6122894,-0.040652275,0
0.46040344,0.6577759,0.0251894,0
0.5561676,0.5021515,-0.25134563,0
0.47476196,0.19210815,-0.26809978,0
0.46159363,0.058029175,-0.15916729,0
0.26646423,0.25794983,0.30412006,0
0.21380615,0.3309784,0.62972736,0
-0.15371704,0.6122894,0.54353046,0
-0.37876892,0.61109924,0.09701252,0
-0.5068512,0.73080444,-0.35190105,0
-0.5427704,0.42793274,-0.47400188,0
-0.18722534,0.42315674,-0.5446348,0
0.08810425,0.37765503,-0.098116875,0
0.4759674,0.48420715,0.12574482,0
0.577713,0.5368805,0.17841816,0
0.6639099,0.5093384,0.14251423,0
0.2928009,0.2878723,0.5842409,0
0.2425232,0.15020752,0.83323383,0
0.21618652,0.24717712,0.65606403,0
0.34547424,0.36569214,-0.18550396,0
0.14077759,0.5308838,-0.6691313,0
0.09768677,0.42434692,-0.32435894,0
-0.11061096,0.50335693,0.27657795,0
0.0019073486,0.47702026,0.41663837,0
0.18147278,0.5656128,-0.0370512,0
0.2928009,0.45666504,-0.28366375,0
0.26646423,0.4830017,0.03237629,0
0.31315613,0.32977295,0.42263508,0
0.38020325,0.45906067,0.30412006,0
0.42808533,0.49856567,-0.14360332,0
0.3275299,0.67214966,-0.6583586,0
0.11683655,0.4973755,-0.63081646,0
-0.026824951,0.4147644,-0.035861015,0
-0.08666992,0.32139587,0.47410297,0
-0.044769287,0.51652527,0.21912861,0
-0.08308411,0.57159424,-0.11128521,0
-0.09146118,0.5500488,-0.122057915,0
-0.031600952,0.32260132,0.17602253,0
0.0821228,0.41596985,0.45135212,0
0.26766968,0.41716003,0.45255756,0
0.27246094,0.55363464,0.22630024,0
0.29640198,0.49497986,0.04194355,0
0.23175049,0.5500488,-0.18310833,0
0.2485199,0.50694275,-0.26809978,0
0.12879944,0.47462463,-0.21542645,0
0.201828,0.35731506,-0.0047330856,0
0.1443634,0.40638733,0.19279194,0
0.1503601,0.4602661,0.19756794,0
-0.13815308,0.44230652,0.19996357,0
-0.1812439,0.47103882,0.20954609,0
-0.29855347,0.5332794,0.13532734,0
-0.15969849,0.5213165,-0.074160576,0
-0.0723114,0.41716003,-0.24055767,0
0.1910553,0.3812561,0.03956318,0
0.4376526,0.33337402,0.45374775,0
0.577713,0.45307922,0.24546528,0
0.5046997,0.45547485,-0.2716856,0
0.30358887,0.50575256,-0.44645977,0
0.0761261,0.4207611,-0.114871025,0
-0.18482971,0.29864502,0.031170845,0
-0.24468994,0.29864502,0.25024128,0
-0.48051453,0.38963318,0.9397707,0
-0.2782135,0.6015167,0.23229694,0
0.21499634,0.57398987,-0.9097471,0
0.21858215,0.51652527,-0.37224102,0
0.047409058,0.42315674,0.5255861,0
0.13119507,0.3525238,0.75542927,0
0.31913757,0.3130188,0.46214008,0
0.44483948,0.40878296,-0.24534893,0
0.5418091,0.4506836,-0.74693584,0
0.33590698,0.50335693,-0.43568707,0
0.17549133,0.52371216,0.1843996,0
0.1335907,0.48660278,0.5662813,0
0.23414612,0.5045471,0.41305256,0
0.3969574,0.58955383,-0.13043499,0
0.39097595,0.53567505,-0.3363371,0
0.2712555,0.4830017,0.21673298,0
0.15992737,0.43870544,0.72430134,0
0.23774719,0.46385193,0.5171938,0
0.4364624,0.5009613,-0.17711163,0
0.46398926,0.4794159,-0.758914,0
0.419693,0.56799316,-0.7146177,0
0.16590881,0.5620117,-0.066988945,0
0.06535339,0.48779297,0.48487568,0
0.25689697,0.50694275,0.6788149,0
0.33111572,0.87924194,0.17004108,0
0.39337158,0.8325653,-0.73497295,0
0.17907715,0.70088196,-0.7924223,0
-0.060333252,0.48898315,0.1401186,0
-0.057937622,0.31541443,0.750638,0
0.046203613,0.40040588,0.71352863,0
0.25689697,0.4028015,0.28376484,0
0.26408386,0.32139587,-0.26928997,0
-0.09385681,0.36090088,-0.2429533,0
-0.4888916,0.40040588,-0.14000225,0
-0.6552887,0.30343628,0.052731514,0
-0.565506,0.37287903,0.25503254,0
-0.41467285,0.5261078,0.12574482,0
-0.10821533,0.59432983,-0.19267559,0
0.0066986084,0.84213257,-0.24774456,0
-0.12138367,0.8349457,-0.17233562,0
-0.19680786,0.5332794,-0.02748394,0
-0.12738037,0.4147644,0.20356464,0
0.058181763,0.2914734,0.15447712,0
0.29640198,0.36209106,-0.0945158,0
0.30596924,0.48060608,-0.015505791,0
0.040222168,0.41955566,0.19279194,0
-0.22673035,0.3525238,0.34481525,0
-0.32011414,0.4147644,0.2885561,0
-0.29496765,0.49258423,0.112576485,0
-0.15969849,0.56321716,-0.06817913,0
-0.16088867,0.62545776,0.01560688,0
-0.28778076,0.566803,0.13651752,0
-0.38954163,0.53448486,-0.038256645,0
-0.4158783,0.56440735,-0.466815,0
-0.3799591,0.3812561,-0.60208416,0
-0.2674408,0.23400879,-0.1412077,0
-0.21595764,0.25076294,0.46333027,0
0.03303528,0.25076294,0.5854311,0
0.31913757,0.21725464,0.31847858,0
0.3430786,0.45307922,0.004834175,0
0.2305603,0.5500488,-0.29085064,0
0.12521362,0.35610962,-0.00833416,0
-0.10223389,0.4830017,0.49564838,0
-0.1237793,0.7272186,-0.057406425,0
-0.18482971,0.81700134,-0.97438335,0
-0.31651306,0.6206665,-0.60927105,0
-0.45298767,0.46743774,0.37235737,0
-0.35601807,0.35610962,0.6895876,0
-0.14413452,0.30703735,0.09461689,0
0.041412354,0.31420898,-0.24055767,0
0.18626404,0.36927795,-0.293231,0
0.20063782,0.353714,0.07307148,0
0.20661926,0.36569214,0.43818378,0
0.22337341,0.48060608,0.31608295,0
0.2532959,0.47583008,0.05152607,0
0.23175049,0.49856567,0.02758503,0
0.06295776,0.60272217,-0.0047330856,0
-0.1525116,0.5476532,-0.16394329,0
-0.3907318,0.38604736,-0.10888958,0
-0.50205994,0.27470398,0.15926838,0
-0.45896912,0.30943298,0.02758503,0
-0.3991089,0.32139587,-0.26689434,0
-0.31292725,0.22802734,-0.16394329,0
-0.19441223,0.30104065,0.24546528,0
-0.12019348,0.41836548,0.28616047,0
0.009094238,0.42913818,-0.10170269,0
0.09289551,0.44589233,-0.18310833,0
0.12281799,0.37646484,0.06828022,0
0.17070007,0.29745483,0.18679523,0
0.10127258,0.27470398,-0.014315605,0
-0.13336182,0.18852234,-0.24415874,0
-0.44221497,-0.030548096,-0.119662285,0
-0.66607666,-0.18737793,0.39869404,0
-0.8983002,-0.27954102,0.51002216,0
-0.936615,-0.14187622,-0.05621624,0
-1.158081,-0.19335938,-0.63441753,0
-1.2107544,-0.39805603,-0.5027342,0
-1.1520996,-0.4243927,-0.03944683,0
-0.8528137,-0.35736084,0.2705965,0
-0.3859558,-0.2544098,0.41186237,0
-0.019638062,-0.080825806,0.36636066,0
0.0761261,-0.03892517,0.081448555,0
-0.16209412,-0.107162476,-0.06817913,0
-0.46495056,-0.11793518,-0.13762188,0
-0.7726135,-0.2244873,-0.076556206,0
-0.936615,-0.42559814,0.10180378,0
-0.9402008,-0.43876648,-0.035861015,0
-0.8360596,-0.33940125,-0.24055767,0
-0.7223358,-0.33700562,-0.13162518,0
-0.5559387,-0.32862854,0.32207966,0
-0.3943329,-0.20532227,0.3903017,0
-0.22314453,-0.15864563,-0.02029705,0
-0.04837036,-0.28074646,-0.32435894,0
-0.09385681,-0.17300415,-0.17473125,0
-0.22912598,-0.088012695,-0.11128521,0
-0.34405518,-0.23526001,-0.19267559,0
-0.36320496,-0.3406067,-0.124453545,0
-0.34284973,-0.2244873,0.09223652,0
-0.24229431,-0.27236938,0.18320942,0
-0.25904846,-0.33461,0.513608,0
-0.3512268,-0.32144165,0.7147188,0
-0.3763733,-0.32862854,0.17123127,0
-0.50805664,-0.24363708,-0.47400188,0
-0.62057495,-0.22688293,-0.5661802,0
-0.584671,-0.35736084,-0.16873455,0
-0.46855164,-0.2939148,0.24067402,0
-0.2722168,-0.14187622,0.17243671,0
-0.14294434,-0.18138123,-0.0370512,0
-0.10821533,-0.27236938,0.20116901,0
-0.1405487,-0.19454956,0.22630024,0
-0.23989868,-0.2651825,-0.12085247,0
-0.33207703,-0.34179688,-0.1807127,0
-0.4230652,-0.21250916,-0.026278496,0
-0.5068512,-0.20173645,-0.30520916,0
-0.67445374,-0.28912354,-0.45245647,0
-0.75465393,-0.3549652,0.02039814,0
-0.6876221,-0.24603271,0.43938923,0
-0.54756165,-0.33102417,0.18919086,0
-0.40031433,-0.35377502,-0.18789959,0
-0.2901764,-0.2472229,-0.2609129,0
-0.18603516,-0.36573792,-0.0370512,0
-0.061538696,-0.47946167,0.63091755,0
0.028244019,-0.2544098,0.6943636,0
0.10366821,-0.116744995,-0.36027813,0
-0.055541992,-0.24961853,-0.877429,0
-0.29736328,-0.35975647,-0.25253582,0
-0.49368286,-0.3836975,0.64768696,0
-0.5092468,-0.42559814,0.7590151,0
-0.3284912,-0.29989624,0.14968586,0
-0.22314453,-0.16342163,-0.65954876,0
-0.23750305,-0.3154602,-0.9839659,0
-0.34284973,-0.38848877,-0.27408123,0
-0.32369995,-0.36454773,0.72669697,0
-0.21116638,-0.374115,0.64768696,0
-0.06991577,-0.30110168,0.15687275,0
-0.13215637,-0.27716064,-0.14839458,0
-0.30215454,-0.36454773,0.07546711,0
-0.31292725,-0.38249207,0.34122944,0
-0.20758057,-0.2639923,0.22390461,0
0.06895447,-0.27954102,-0.08972454,0
0.3682251,-0.4710846,0.019207954,0
0.50709534,-0.42678833,0.3675661,0
0.39935303,-0.24961853,0.2777834,0
0.21739197,-0.17060852,-0.24415874,0
-0.047164917,-0.2472229,-0.66792583,0
-0.29257202,-0.3406067,-0.66792583,0
-0.5176239,-0.46868896,-0.14958477,0
-0.624176,-0.67100525,0.3962984,0
-0.5966339,-0.5680542,0.5195894,0
-0.42904663,-0.22807312,-0.09212017,0
-0.25306702,-0.3046875,-0.74574566,0
-0.07589722,-0.48306274,-0.33873272,0
0.18626404,-0.48544312,0.6357088,0
0.493927,-0.5177765,0.7913332,0
0.6351776,-0.4124298,0.22869587,0
0.5058899,-0.3334198,-0.28724957,0
0.17907715,-0.4519348,-0.14479351,0
-0.21835327,-0.49861145,0.513608,0
-0.52960205,-0.4746704,0.553113,0
-0.3656006,-0.41362,-0.2609129,0
-0.17765808,-0.1789856,-1.0019255,0
-0.24468994,-0.2472229,-0.75651836,0
-0.3284912,-0.6734009,0.16645527,0
-0.35482788,-0.41722107,0.750638,0
-0.10462952,-0.33581543,0.88232136,0
0.34188843,-0.33581543,0.58063984,0
0.5166626,-0.45672607,-0.6715269,0
0.47955322,-0.64585876,-1.4843473,0
0.36582947,-0.91760254,-0.5601835,0
0.13240051,-0.705719,1.2019472,0
-0.12138367,-0.3334198,1.2857332,0
-0.026824951,-0.44833374,0.13532734,0
-0.07948303,-0.59439087,-0.19627666,0
-0.0435791,-0.5213623,-0.06817913,0
0.03543091,-0.5644531,0.02998066,0
-0.018432617,-0.58480835,0.12334919,0
-0.018432617,-0.4351654,-0.07057476,0
0.024658203,-0.4603119,-0.15317059,0
-0.0016784668,-0.58480835,0.05152607,0
-0.14772034,-0.50579834,0.02758503,0
-0.4625702,-0.4243927,-0.44645977,0
-0.6756439,-0.5500946,-0.22500896,0
-0.58825684,-0.4638977,0.093426704,0
-0.2506714,-0.46150208,-0.081347466,0
0.19824219,-0.62312317,-0.16754436,0
0.5094757,-0.49861145,0.119763374,0
0.48434448,-0.3848877,0.114972115,0
0.31315613,-0.4243927,0.42861652,0
0.06774902,-0.47827148,1.1133547,0
-0.07710266,-0.47706604,1.0056124,0
0.12760925,-0.55488586,-0.0945158,0
0.08331299,-0.42918396,-0.9073515,0
0.17549133,-0.31666565,-0.94446087,0
0.09887695,-0.38609314,-0.18429852,0
-0.05316162,-0.40045166,0.77816486,0
0.07852173,-0.31427002,0.632123,0
0.09768677,-0.25559998,-0.28126812,0
-0.07350159,-0.27835083,-0.78285503,0
-0.17884827,-0.41003418,-0.5721617,0
-0.40031433,-0.48425293,0.071881294,0
-0.26983643,-0.587204,0.65606403,0
-0.0064697266,-0.611145,0.7733736,0
0.15873718,-0.40405273,0.72788715,0
0.041412354,-0.3561554,0.3855257,0
-0.20399475,-0.32743835,0.22511005,0
-0.40031433,-0.49502563,0.14610004,0
-0.3691864,-0.61473083,-0.14839458,0
-0.10343933,-0.5357208,-0.2429533,0
0.18746948,-0.44714355,-0.24534893,0
0.35386658,-0.30110168,-0.21542645,0
0.09529114,-0.32862854,-0.09212017,0
-0.23272705,-0.37052917,0.26461506,0
-0.24110413,-0.42678833,0.3783388,0
-0.32489014,-0.29151917,-0.102892876,0
-0.19920349,-0.51538086,-0.64758587,0
-0.22912598,-0.4818573,-0.44168377,0
-0.23391724,-0.26997375,-0.093325615,0
-0.23750305,-0.58480835,0.20596027,0
0.1503601,-0.5129852,0.4776888,0
0.3789978,-0.16821289,0.06110859,0
0.5358124,-0.15625,-0.5637846,0
0.53222656,-0.33221436,-0.100497246,0
0.38258362,-0.34658813,0.5351534,0
0.34907532,-0.5572815,0.68479633,0
0.2820282,-0.51657104,0.62733173,0
0.23295593,-0.31785583,0.05631733,0
0.07733154,-0.21011353,-0.66434,0
-0.028015137,-0.26757812,-0.42372417,0
-0.18482971,-0.3058777,0.21194172,0
-0.055541992,-0.40882874,0.4441805,0
-0.08427429,-0.3848877,0.095822334,0
-0.032806396,-0.27835083,-0.22978497,0
-0.20877075,-0.38609314,0.05631733,0
-0.19920349,-0.53811646,0.34122944,0
-0.32728577,-0.5105896,0.49206257,0
-0.31651306,-0.3262329,0.2490511,0
-0.33447266,-0.29510498,-0.045443535,0
-0.31292725,-0.0987854,-0.38301373,0
-0.3907318,-0.107162476,-0.58053875,0
-0.34883118,-0.15504456,-0.50152874,0
-0.26983643,-0.2472229,0.1508913,0
-0.1525116,-0.15026855,0.5016298,0
-0.11300659,-0.3046875,0.45255756,0
-0.23750305,-0.45433044,0.3675661,0
-0.3763733,-0.3836975,0.119763374,0
-0.37278748,-0.19815063,-0.36146832,0
-0.23033142,-0.25320435,-0.112475395,0
0.13838196,-0.28912354,0.14130878,0
0.48194885,-0.30110168,0.05871296,0
0.4759674,-0.2137146,0.059903145,0
0.3167572,-0.13589478,0.33164692,0
0.0821228,-0.23165894,0.5231905,0
-0.063934326,-0.38728333,0.36277485,0
-0.21237183,-0.3621521,0.04194355,0
-0.036392212,-0.30827332,-0.2202177,0
-0.055541992,-0.17539978,-0.23578167,0
-0.033996582,-0.099975586,-0.42132854,0
-0.24588013,-0.195755,-0.15437603,0
-0.31651306,-0.37171936,0.35918903,0
-0.37039185,-0.37171936,0.42142963,0
-0.25427246,-0.22328186,-0.015505791,0
-0.3069458,-0.195755,-0.22500896,0
-0.26264954,-0.107162476,-0.10170269,0
-0.20039368,-0.07723999,0.06350422,0
0.16711426,-0.15983582,0.19756794,0
0.3897705,-0.34777832,0.7626009,0
0.632782,-0.4698944,0.93378925,0
0.56933594,-0.4124298,0.6740236,0
0.37780762,-0.20532227,-0.16514874,0
-0.033996582,-0.064071655,-0.51948833,0
-0.25306702,-0.25320435,-0.21184063,0
-0.34883118,-0.34298706,0.73507404,0
-0.54156494,-0.41722107,0.8128786,0
-0.6756439,-0.43637085,-0.023882866,0
-0.71635437,-0.11076355,-0.73974895,0
-0.723526,0.14064026,-1.213809,0
-0.81211853,0.14064026,-1.0629759,0
-0.54875183,0.16577148,-0.4488554,0
-0.22673035,0.0496521,-0.25253582,0
0.031845093,-0.047317505,-0.2501402,0
0.10964966,-0.0987854,-0.15556622,0
0.08091736,-0.28912354,-0.0610075,0
-0.13096619,-0.38609314,0.5315676,0
-0.24588013,-0.11793518,0.18800068,0
-0.23391724,-0.097595215,-0.36027813,0
-0.20877075,-0.34777832,0.20356464,0
-0.27700806,-0.16462708,0.458539,0
-0.2889862,-0.03892517,0.12695026,0
-0.26264954,-0.3441925,0.46214008,0
-0.17166138,-0.28074646,0.59859943,0
0.016281128,-0.1849823,0.24067402,0
0.017471313,-0.39686584,0.43938923,0
-0.0040740967,-0.22688293,0.66923237,0
0.025848389,0.110702515,-0.16035748,0
-0.19799805,0.029296875,-0.77925396,0
-0.3512268,-0.19934082,-0.32316875,0
-0.40270996,-0.14787292,0.03237629,0
-0.47573853,-0.3453827,0.08984089,0
-0.44940186,-0.32981873,0.15568256,0
-0.48291016,-0.17779541,-0.14360332,0
-0.61698914,0.084365845,-0.545825,0
-0.8588104,0.038879395,-0.7660856,0
-0.94499207,-0.17181396,-0.4943571,0
-0.6121979,-0.18617249,-0.011919975,0
-0.19082642,-0.18377686,0.43818378,0
0.23414612,-0.18856812,0.47051716,0
0.6794739,-0.17539978,0.12695026,0
0.8398895,-0.03652954,0.18679523,0
0.8446655,-0.22807312,0.48608112,0
0.6495514,-0.31427002,0.25503254,0
0.32992554,-0.2651825,0.05631733,0
0.15274048,-0.4315796,0.6919832,0
-0.22912598,-0.63508606,1.4760714,0
-0.33088684,-0.4519348,0.8392153,0
-0.52960205,-0.19335938,-0.54103374,0
-0.7378998,-0.1897583,-0.9288969,0
-0.8193054,-0.26757812,-0.5099058,0
-0.91267395,-0.21011353,-0.3111906,0
-0.6145935,-0.38848877,-0.56138897,0
-0.24349976,-0.40045166,-0.5494108,0
0.003112793,-0.068862915,-0.0945158,0
-0.051956177,0.096343994,0.23827839,0
-0.2602539,0.04725647,0.30770588,0
-0.48651123,0.1980896,0.1113863,0
-0.7091675,0.12866211,-0.26928997,0
-0.78219604,-0.26159668,-0.288455,0
-0.68881226,-0.57762146,-0.04184246,0
-0.55114746,-0.6183319,-0.17831707,0
-0.47453308,-0.49143982,-0.23099041,0
-0.3512268,-0.25320435,-0.043047905,0
-0.21595764,-0.009002686,0.124554634,0
-0.06752014,0.072402954,0.300519,0
0.0043029785,-0.14787292,0.68719196,0
0.12042236,-0.26278687,0.52079487,0
0.2305603,-0.25082397,0.11378193,0
0.22457886,-0.27716064,0.040753365,0
0.07014465,-0.2244873,-0.05861187,0
-0.09744263,-0.1670227,-0.3219633,0
-0.15730286,-0.24482727,-0.3650694,0
-0.14772034,0.02810669,0.06828022,0
-0.07470703,0.25315857,-0.21901226,0
0.022262573,0.002960205,-0.61885357,0
0.05218506,-0.11793518,-0.078951836,0
-0.08666992,-0.076034546,0.4405794,0
-0.15490723,-0.2831421,0.110180855,0
-0.2901764,-0.3801117,-0.10409832,0
-0.3177185,-0.22807312,-0.20823956,0
-0.3009491,-0.18856812,-0.17352581,0
-0.27342224,-0.14906311,0.18081379,0
-0.18962097,0.008956909,0.24546528,0
-0.061538696,0.031692505,-0.0322752,0
-0.06871033,-0.10118103,-0.13762188,0
-0.020828247,-0.0066070557,-0.093325615,0
-0.18005371,0.012542725,-0.1519804,0
-0.174057,-0.13349915,0.11855793,0
-0.08068848,-0.15145874,0.33404255,0
-0.15371704,-0.08680725,0.26940632,0
-0.2674408,-0.083221436,0.12095356,0
-0.4948883,-0.09399414,0.2921419,0
-0.60980225,-0.10357666,0.419034,0
-0.5667114,-0.107162476,0.0060396194,0
-0.40270996,-0.09159851,-0.600894,0
-0.17286682,-0.09399414,-0.55899334,0
0.055786133,-0.004211426,-0.18310833,0
0.24612427,0.24119568,-0.023882866,0
0.37660217,0.21725464,0.05152607,0
0.375412,0.13943481,0.1113863,0
0.3215332,0.3357544,-0.02987957,0
0.162323,0.3632965,-0.60568523,0
-0.1632843,0.06163025,-0.30162334,0
-0.22673035,0.067611694,0.65964985,0
-0.22673035,0.53208923,0.57586384,0
-0.116607666,0.6745453,-0.14000225,0
-0.18843079,0.48898315,-0.09930706,0
-0.4278412,0.6996765,0.10899067,0
-0.5966339,0.8050232,-0.22140789,0
-0.6576843,0.53208923,-0.29443645,0
-0.5894623,0.3824463,0.052731514,0
-0.25785828,0.37886047,0.12695026,0
0.10127258,0.38005066,-0.18550396,0
0.32632446,0.34294128,0.23588276,0
0.577713,0.3345642,0.55790424,0
0.56214905,0.17893982,0.57586384,0
0.48913574,0.12626648,0.08504963,0
0.08810425,-0.049697876,-0.12564373,0
-0.1920166,-0.3262329,0.14968586,0
-0.57629395,-0.076034546,0.4872713,0
-0.3572235,0.2160492,-0.0657835,0
-0.11540222,0.43392944,-0.46322918,0
0.3179474,0.56799316,-0.15317059,0
0.49272156,0.87805176,-0.19627666,0
0.54660034,0.6637726,-0.35667706,0
0.41371155,0.58595276,-0.043047905,0
0.38258362,0.58595276,0.4070711,0
0.29640198,0.59672546,0.035962105,0
0.24491882,0.31900024,0.012021065,0
0.046203613,0.5105438,-0.095721245,0
-0.13694763,0.48539734,-0.4081602,0
-0.15132141,0.46743774,-0.4189329,0
-0.020828247,0.54525757,0.3388338,0
0.2090149,0.6865082,0.033566475,0
0.19345093,0.37886047,-0.078951836,0
0.16352844,0.2040863,0.66564655,0
-0.14413452,0.17056274,1.3563662,0
-0.27581787,0.29745483,0.498044,0
-0.5571289,0.27949524,-0.4081602,0
-0.51164246,0.3597107,-0.758914,0
-0.4888916,0.5883484,-0.49315166,0
-0.08547974,0.67933655,-0.45245647,0
0.12042236,0.48060608,0.03477192,0
0.52145386,0.3920288,0.28017902,0
0.45202637,0.5392761,-0.21063519,0
0.5358124,0.5488434,-0.51111126,0
0.28562927,0.5404663,-0.110079765,0
0.2999878,0.47343445,0.18200397,0
-0.005264282,0.3632965,-0.04184246,0
-0.037597656,0.26992798,-0.20823956,0
-0.38475037,0.34654236,0.038357735,0
-0.36799622,0.45906067,0.3615694,0
-0.3763733,0.49137878,0.16764545,0
-0.039993286,0.46385193,-0.20704937,0
-0.0064697266,0.42674255,-0.29085064,0
0.2485199,0.42793274,0.019207954,0
0.30596924,0.51293945,0.45255756,0
0.6687012,0.566803,0.4070711,0
0.60765076,0.5213165,-0.13043499,0
0.6399689,0.4315338,-0.34350872,0
0.30358887,0.48539734,-0.12085247,0
0.23535156,0.57159424,0.13532734,0
-0.022033691,0.4686432,0.14849567,0
0.003112793,0.2950592,0.1448946,0
-0.30574036,0.28070068,0.33285236,0
-0.3979187,0.34773254,0.2813692,0
-0.67684937,0.43511963,0.069485664,0
-0.46136475,0.37167358,-0.06817913,0
-0.22554016,0.41236877,-0.16754436,0
0.29161072,0.5332794,-0.3578825,0
0.47236633,0.54644775,-0.35548687,0
0.72377014,0.43511963,0.23707294,0
0.7034149,0.31420898,0.8224611,0
0.69503784,0.353714,0.56986713,0
0.3789978,0.3920288,-0.25493145,0
0.28562927,0.3345642,-0.72897625,0
-0.09265137,0.34773254,-0.51829815,0
-0.16567993,0.48779297,-0.209445,0
-0.22673035,0.32737732,0.21673298,0
-0.018432617,0.20048523,0.56149006,0
0.055786133,0.3309784,0.36517048,0
0.17788696,0.57876587,-0.081347466,0
0.3430786,0.45187378,0.19398212,0
0.5920868,0.34414673,0.4944582,0
0.5813141,0.23999023,-0.07057476,0
0.36224365,0.31062317,-0.77447796,0
0.29640198,0.43632507,-0.4476652,0
0.18984985,0.5153198,-0.090929985,0
0.41252136,0.48898315,-0.1412077,0
0.553772,0.511734,-0.5051298,0
0.7524872,0.41716003,-0.28485394,0
0.39575195,0.20169067,0.8116884,0
0.15394592,0.18133545,1.418622,0
-0.12138367,0.17893982,0.3855257,0
-0.016036987,0.21844482,-0.7900419,0
-0.1632843,0.3022461,-0.7768736,0
0.040222168,0.3824463,-0.13881207,0
0.30717468,0.353714,0.7195101,0
0.76327515,0.353714,0.7027559,0
1.1391602,0.30104065,-0.17592144,0
1.0314178,0.3022461,-0.3399229,0
0.9464264,0.20288086,0.117367744,0
0.7872162,0.3357544,0.028775215,0
0.83270264,0.5093384,-0.30162334,0
0.66270447,0.48420715,-0.40217876,0
0.50109863,0.4039917,0.20834064,0
0.10246277,0.55722046,0.7183199,0
7.171631E-4,0.5261078,0.107785225,0
0.2090149,0.24957275,-0.44645977,0
0.4005432,0.2555542,-0.4763975,0
0.38139343,0.39442444,-0.38421917,0
0.22697449,0.4039917,0.29453754,0
0.25689697,0.30943298,0.9541445,0
0.36224365,0.21485901,0.70992756,0
0.19824219,0.20288086,-0.5673704,0
-0.15849304,0.09274292,-0.9073515,0
-0.2997589,0.24238586,-0.14000225,0
-0.13815308,0.6134949,0.22750568,0
0.20661926,0.92832947,-0.112475395,0
0.59687805,0.77149963,-0.0023374557,0
0.6507416,0.5919342,0.47889423,0
0.49032593,0.67214966,0.33045673,0
0.24014282,0.6972809,-0.37105083,0
-0.1405487,0.57518005,-0.5565977,0
-0.19680786,0.49617004,-0.011919975,0
-0.19680786,0.5811615,0.55430317,0
0.15873718,0.43032837,0.55790424,0
0.24731445,0.34294128,0.28376484,0
0.21618652,0.59672546,-0.28126812,0
0.19824219,0.75234985,-0.43091106,0
0.12042236,0.74516296,-0.15317059,0
0.30238342,0.7176361,-0.081347466,0
0.22697449,0.68292236,-0.16035748,0
0.27604675,0.6182709,0.21792316,0
0.32392883,0.69010925,0.84400654,0
0.41610718,0.7547455,0.7913332,0
0.52864075,0.72242737,0.40227985,0
0.55018616,0.6134949,-0.038256645,0
0.50109863,0.511734,-0.24655437,0
0.29400635,0.54644775,0.110180855,0
0.201828,0.5476532,0.50762653,0
0.19224548,0.551239,0.4358034,0
0.041412354,0.6158905,-0.08494854,0
-0.17286682,0.6134949,-0.31717205,0
-0.4158783,0.5189209,-0.10170269,0
-0.53318787,0.6350403,0.30291462,0
-0.3572235,0.65419006,0.33285236,0
-0.09864807,0.58595276,0.071881294,0
0.09408569,0.66256714,-0.30520916,0
0.13000488,0.89001465,-0.6834898,0
0.18147278,0.9163513,-0.40576458,0
0.21739197,0.88642883,0.088635445,0
0.14317322,0.8409424,0.13172626,0
0.07493591,0.48660278,-0.08494854,0
-0.060333252,0.39082336,0.2526369,0
-0.2961731,0.5380707,0.5483217,0
-0.3584137,0.53208923,0.22150898,0
-0.33566284,0.5392761,0.13172626,0
-0.4051056,0.64341736,-0.14239788,0
-0.3991089,0.4937744,-0.48717022,0
-0.41348267,0.5991211,-0.16754436,0
-0.33447266,0.8181915,-0.0610075,0
-0.12258911,0.7930603,0.04433918,0
0.09887695,0.66496277,0.3507967,0
0.18507385,0.69010925,0.2310915,0
0.19584656,0.5584259,0.057507515,0
-0.0040740967,0.45787048,0.29693317,0
-0.16209412,0.38005066,0.4358034,0
-0.18482971,0.35012817,0.5626955,0
-0.047164917,0.5392761,0.39390278,0
0.0066986084,0.7319946,-0.24055767,0
0.0761261,0.63383484,-0.6356077,0
-0.007659912,0.8265686,-0.25732708,0
0.023452759,0.93670654,-0.071780205,0
0.14796448,0.64460754,0.12814045,0
0.14675903,0.6266632,0.58063984,0
0.06895447,0.79904175,0.27538776,0
-0.20039368,0.6960907,-0.12803936,0
-0.58106995,0.5560303,0.22630024,0
-0.7690277,0.39682007,0.22750568,0
-0.66007996,0.2830963,0.02039814,0
-0.20399475,0.33815002,-0.11606121,0
0.18147278,0.4207611,-0.16994,0
0.39456177,0.49258423,-0.0370512,0
0.3430786,0.69129944,-0.0011472702,0
0.18147278,0.79904175,-0.11845684,0
0.06416321,0.76312256,-0.17352581,0
-0.030410767,0.8181915,-0.1914854,0
-0.13694763,0.79185486,-0.14599895,0
-0.21237183,0.7391815,-0.100497246,0
-0.3009491,0.63983154,-0.02987957,0
-0.43623352,0.6015167,-0.03467083,0
-0.48051453,0.58955383,-0.122057915,0
-0.29257202,0.40638733,0.014416695,0
-0.04118347,0.28907776,0.4729128,0
0.11444092,0.3357544,0.5818453,0
0.17430115,0.44110107,0.17004108,0
0.13957214,0.566803,-0.090929985,0
-0.018432617,0.7858734,-0.17473125,0
-0.3284912,0.8146057,-0.18429852,0
-0.5499573,0.6194763,-0.078951836,0
-0.49728394,0.5596161,0.013226509,0
-0.600235,0.65060425,-0.031069756,0
-0.505661,0.5153198,-0.0370512,0
-0.38475037,0.39682007,0.40586567,0
-0.2674408,0.32977295,0.2490511,0
-0.22314453,0.38005066,-0.2788725,0
-0.15132141,0.1071167,-0.34829998,0
-0.18843079,-0.00541687,-0.038256645,0
-0.031600952,0.09036255,0.30172443,0
0.012680054,0.101135254,0.19398212,0
0.036621094,0.13464355,0.32566547,0
-0.06272888,0.19569397,0.2023592,0
-0.18005371,0.20288086,-0.21661663,0
-0.23989868,0.093948364,-0.14718914,0
-0.3464508,0.13464355,-0.081347466,0
-0.34883118,0.120285034,-0.016711235,0
-0.22673035,-0.056884766,0.4358034,0
-0.08427429,-0.023361206,0.29453754,0
-0.08427429,0.11907959,-0.600894,0
-0.30574036,-0.14787292,-1.2221861,0
-0.4781189,-0.26997375,-0.4153471,0
-0.52960205,-0.2472229,0.38911152,0
-0.134552,-0.078430176,0.46333027,0
0.26766968,5.79834E-4,0.06110859,0
0.49153137,0.048461914,-0.44168377,0
0.414917,-0.097595215,-0.35309124,0
0.24133301,-0.19335938,0.29095173,0
0.09169006,-0.19815063,0.66683674,0
-0.0040740967,-0.064071655,0.17483234,0
-0.07589722,-0.0987854,-0.4991331,0
-0.28659058,-0.17658997,-0.28605938,0
-0.46136475,-0.15983582,0.48966694,0
-0.3799591,-0.19215393,0.78535175,0
-0.114212036,-0.26757812,0.38192463,0
0.17788696,-0.22807312,-0.09691143,0
0.17070007,-0.20173645,-0.24774456,0
-0.04118347,-0.05090332,0.07546711,0
-0.3512268,-0.037734985,0.44897175,0
-0.4158783,-0.12631226,0.064694405,0
-0.47573853,-0.18617249,-0.17113018,0
-0.4194641,-0.2292633,-0.1914854,0
-0.21476746,-0.23165894,0.083844185,0
-0.026824951,-0.20292664,0.4010744,0
0.17668152,-0.16581726,0.2705965,0
0.31196594,-0.20413208,0.103009224,0
0.17668152,-0.31904602,0.2777834,0
-0.21356201,-0.3513794,0.6357088,0
-0.45178223,-0.24243164,0.24425983,0
-0.45298767,-0.13948059,-0.6511717,0
-0.40989685,-0.123931885,-0.8463011,0
-0.2506714,-0.32025146,-0.18429852,0
0.041412354,-0.52734375,0.8416109,0
0.42687988,-0.4890442,0.8667574,0
0.82551575,-0.38130188,-0.25851727,0
0.7536926,-0.25201416,-1.0773344,0
0.31913757,-0.30947876,-0.8055906,0
-0.09265137,-0.5584717,0.19279194,0
-0.28300476,-0.6793823,0.9170351,0
-0.3117218,-0.85176086,0.45974445,0
-0.2782135,-0.8218384,-0.2501402,0
-0.308136,-0.64346313,-0.29562664,0
-0.31411743,-0.76197815,0.04673481,0
-0.2506714,-0.7392273,0.45016193,0
-0.06272888,-0.5429077,-0.06817913,0
0.042617798,-0.70451355,-0.5721617,0
0.011489868,-0.8158417,-0.093325615,0
-0.20877075,-0.82662964,0.28495502,0
-0.19322205,-0.98583984,0.35918903,0
-0.2027893,-0.97506714,0.7626009,0
-0.0040740967,-0.84217834,0.24665546,0
0.09887695,-0.7272644,-0.38063335,0
0.0066986084,-0.611145,-0.27408123,0
-0.116607666,-0.60635376,-0.06338787,0
-0.17884827,-0.7368469,0.17483234,0
-0.1920166,-0.8326111,0.26580524,0
-0.19799805,-0.74401855,-0.00593853,0
-0.28300476,-0.6961365,-0.20704937,0
-0.37516785,-0.86613464,-0.02029705,0
-0.33088684,-0.76556396,0.34362507,0
-0.1920166,-0.6374817,0.1448946,0
-0.08308411,-0.71528625,-0.2429533,0
0.13479614,-0.66381836,-0.27528667,0
0.25450134,-0.43756104,-0.14958477,0
0.36343384,-0.57522583,0.082654,0
0.33351135,-0.72966003,0.30770588,0
0.17549133,-0.79429626,0.2203188,0
-0.039993286,-0.88887024,0.02758503,0
-0.29257202,-0.9595032,0.06110859,0
-0.25546265,-0.82302856,-0.14599895,0
-0.06272888,-0.7344513,-0.52907085,0
0.017471313,-0.7069092,-0.5254698,0
0.05458069,-0.65423584,-0.2824583,0
0.11923218,-0.7272644,0.24665546,0
0.1730957,-0.83740234,0.24546528,0
0.20422363,-0.8326111,-0.4763975,0
0.14796448,-0.79429626,-0.65954876,0
0.007904053,-0.8900757,-0.02987957,0
-0.16209412,-0.94633484,0.6644411,0
-0.308136,-0.844574,0.3496065,0
-0.28538513,-0.7248688,-0.17352581,0
-0.2614441,-0.7081146,-0.16035748,0
-0.2722168,-0.6949463,0.064694405,0
-0.25785828,-0.6590271,0.11378193,0
-0.2387085,-0.62789917,0.119763374,0
-0.1920166,-0.65663147,0.06589985,0
-0.07589722,-0.67578125,-0.08255291,0
0.06774902,-0.6793823,-0.11366558,0
0.12402344,-0.66023254,0.019207954,0
0.1515503,-0.6518402,0.040753365,0
0.07493591,-0.6470642,0.21792316,0
0.019866943,-0.77993774,0.38192463,0
-0.061538696,-0.95710754,0.35918903,0
-0.26504517,-0.844574,-0.08972454,0
-0.40270996,-0.5405121,-0.38421917,0
-0.39312744,-0.3226471,-0.29204082,0
-0.095047,-0.34658813,0.27299213,0
0.16950989,-0.5417175,0.30770588,0
0.30119324,-0.63150024,-0.19027996,0
0.41371155,-0.68177795,-0.30879498,0
0.5094757,-0.5620575,-0.088534355,0
0.4436493,-0.4746704,0.0036439896,0
0.24612427,-0.44714355,0.19039631,0
0.03303528,-0.54411316,0.29693317,0
-0.08906555,-0.6374817,0.31368732,0
-0.19441223,-0.54888916,-0.117266655,0
-0.22912598,-0.37052917,-0.72539043,0
-0.24708557,-0.36094666,-0.5841398,0
-0.16088867,-0.3956604,0.18560505,0
0.09169006,-0.33821106,0.37713337,0
0.22097778,-0.24603271,0.013226509,0
0.201828,-0.2639923,-0.02508831,0
0.10725403,-0.10357666,-0.052615166,0
-0.030410767,-0.03652954,-0.47998333,0
-0.1058197,-0.17060852,-0.4596281,0
-0.09983826,-0.1742096,0.0012483597,0
0.060577393,-0.15504456,0.105389595,0
0.11923218,-0.24363708,0.36996174,0
0.029449463,-0.27116394,0.67042255,0
-0.033996582,-0.19815063,0.43818378,0
-0.056747437,-0.25559998,0.014416695,0
-0.026824951,-0.2939148,-0.0011472702,0
0.039016724,-0.18258667,0.040753365,0
0.09289551,-0.12272644,-0.045443535,0
0.08810425,-0.15026855,0.031170845,0
0.0713501,-0.15026855,-0.07776165,0
0.09529114,-0.21131897,-0.2597227,0
0.12402344,-0.24363708,-0.04184246,0
0.24372864,-0.2831421,0.32566547,0
0.3095703,-0.20652771,0.3675661,0
0.26527405,-0.1849823,0.05152607,0
0.09049988,-0.12991333,-0.3794279,0
-0.016036987,-0.099975586,-0.45364666,0
0.029449463,-0.111953735,-0.06338787,0
0.2772522,-0.15864563,0.29095173,0
0.553772,-0.102371216,0.021603584,0
0.60165405,-0.06048584,-0.3985777,0
0.44483948,-0.037734985,-0.16994,0
0.4041443,-0.13710022,0.3065157,0
0.31436157,-0.19215393,0.63091755,0
0.3969574,-0.25082397,0.4298067,0
0.37660217,-0.23165894,-0.1340208,0
0.14077759,-0.21969604,-0.37823772,0
-0.1058197,-0.26278687,-0.15556622,0
-0.39312744,-0.24243164,0.18919086,0
-0.46376038,-0.26757812,0.39988422,0
-0.4960785,-0.32025146,0.21433735,0
-0.48051453,-0.3956604,-0.32077312,0
-0.53678894,-0.3801117,-0.77566814,0
-0.41706848,-0.2651825,-0.45125103,0
-0.18603516,-0.104766846,0.3675661,0
0.28442383,-0.00541687,0.5339632,0
0.69862366,-0.0987854,-0.17711163,0
0.7309418,-0.1275177,-0.5554075,0
0.64834595,-0.076034546,-0.095721245,0
0.4759674,-0.13110352,0.37115192,0
0.45202637,-0.2364502,0.41186237,0
0.45202637,-0.25680542,0.06110859,0
0.38139343,-0.29631042,-0.110079765,0
0.0761261,-0.24363708,0.32685566,0
-0.28659058,-0.27116394,0.5590944,0
-0.5439606,-0.3154602,0.47051716,0
-0.466156,-0.2639923,-0.08015728,0
-0.27581787,-0.13710022,-0.6547575,0
-0.05316162,-0.16104126,-0.56976604,0
0.10964966,-0.2292633,0.34481525,0
0.20301819,-0.28193665,0.8009157,0
0.32392883,-0.3549652,0.107785225,0
0.2892151,-0.31666565,-0.36146832,2
0.05937195,-0.48306274,0.39509296,2
-0.15132141,-0.76916504,0.7374697,2
-0.11898804,-0.86253357,-0.08494854,2
-0.12258911,-0.98942566,-0.6691313,2
-0.063934326,-1.0684357,-0.600894,2
-0.21835327,-1.0684357,-0.3650694,2
-0.2794037,-1.0839996,0.1293459,2
-0.20877075,-1.1270905,0.70515156,2
-0.114212036,-1.1977234,0.35319233,2
-0.25187683,-1.2515869,0.067090034,2
-0.29377747,-1.231247,-0.25851727,2
-0.28538513,-1.2934875,-0.6212492,2
-0.16448975,-1.349762,-0.7146177,2
-0.11898804,-1.5101624,-0.22859478,2
-0.066329956,-1.7280426,0.20954609,2
-0.13096619,-1.7855072,0.5124178,2
-0.19560242,-1.6993103,0.4441805,2
-0.36439514,-1.6346588,0.093426704,2
-0.46855164,-1.5089722,-0.10649395,2
-0.70558167,-1.5999451,-0.110079765,2
-0.8923187,-1.7076874,-0.14360332,2
-0.83366394,-1.8585205,-0.23457623,2
-0.6181793,-1.9519043,-0.2716856,2
-0.426651,-1.9985809,0.08025837,2
-0.19560242,-1.8082428,0.5064211,2
-0.036392212,-1.5963593,0.34840107,2
-0.012451172,-1.6681824,-0.110079765,2
-0.16209412,-1.6933289,-0.078951836,2
-0.20518494,-1.7232513,-0.03944683,2
-0.18843079,-1.8692932,-0.23936749,2
-0.11898804,-2.0045776,-0.2992277,2
-0.005264282,-1.9423218,-0.13043499,2
0.14317322,-1.7088928,0.20356464,2
0.35147095,-1.528122,0.64887714,2
0.45681763,-1.4610901,0.6895876,2
0.28562927,-1.6382599,0.21912861,2
0.09049988,-1.986618,-0.23697186,2
-0.20039368,-2.0835724,-0.29204082,2
-0.37756348,-2.0368958,-0.064593315,2
-0.43502808,-2.1506195,0.5638857,2
-0.3584137,-2.1793518,1.0463228,2
-0.20758057,-2.2140656,0.7733736,2
-0.06752014,-2.2858887,0.5303621,2
0.15274048,-2.2391968,0.5160036,2
0.43167114,-2.2032928,0.23946857,2
0.29161072,-2.1625824,0.08504963,2
0.031845093,-1.9363403,0.117367744,2
0.013885498,-1.5496674,-0.16514874,2
-0.018432617,-1.4167938,-0.24895,2
0.003112793,-1.5448761,-0.25851727,2
-0.042373657,-1.520935,-0.14479351,2
-0.030410767,-1.528122,-0.23578167,2
0.06416321,-1.4646759,-0.04902935,2
0.25689697,-1.3916473,-0.107684135,2
0.19703674,-1.1127319,-0.67869854,2
0.18147278,-0.9128113,-0.59131145,2
0.061767578,-0.64346313,-0.069384575,2
-0.023223877,-0.21609497,-0.02987957,2
-0.0723114,0.18373108,-0.13283062,2
-0.116607666,0.28907776,-0.13283062,2
-0.24468994,0.12626648,-0.009524345,2
-0.34165955,-0.042526245,0.071881294,2
-0.29377747,-0.05809021,-0.013110161,2
-0.2602539,-0.06526184,-0.1232481,2
-0.28179932,-0.20892334,-0.08494854,2
-0.24708557,-0.3058777,0.21194172,2
-0.17645264,-0.24124146,0.088635445,2
-0.18363953,-0.21131897,0.057507515,2
-0.13336182,-0.38728333,0.3460207,2
-0.11300659,-0.29870605,0.5351534,2
0.003112793,-0.1275177,0.22511005,2
-0.047164917,-0.18377686,0.1448946,2
-0.04837036,-0.31427002,0.3567934,2
0.12042236,-0.37171936,0.10899067,2
0.18147278,-0.4016571,-0.23936749,2
0.19345093,-0.33821106,-0.13162518,2
0.08091736,-0.12033081,-0.02269268,2
-0.07110596,-0.061676025,-0.06817913,2
-0.111816406,-0.17658997,0.091031075,2
-0.12738037,-0.28553772,0.055111885,2
-0.18363953,-0.3154602,-0.21063519,2
-0.26623535,-0.43756104,-0.07297039,2
-0.30574036,-0.36454773,0.3172884,2
-0.20758057,-0.34298706,0.08984089,2
-0.25427246,-0.41601562,-0.17473125,2
-0.2494812,-0.38967896,0.08025837,2
-0.16926575,-0.3441925,0.18200397,2
-0.24468994,-0.32144165,0.035962105,2
-0.21476746,-0.41601562,-0.11366558,2
-0.21716309,-0.36932373,-0.15796185,2
-0.23510742,-0.2651825,-0.112475395,2
-0.24349976,-0.30110168,0.24306965,2
-0.21237183,-0.28553772,0.18800068,2
-0.16807556,-0.27954102,-0.3183775,2
-0.20159912,-0.33221436,-0.22261333,2
-0.21955872,-0.20173645,0.30531025,2
-0.18962097,-0.012588501,0.10419941,2
-0.2674408,-0.06765747,-0.15437603,2
-0.24588013,-0.20173645,0.18320942,2
-0.19920349,-0.19096375,0.18919086,2
-0.17765808,-0.17658997,-0.21661663,2
-0.116607666,-0.31066895,0.019207954,2
-0.2602539,-0.19815063,0.34721088,2
-0.28538513,-0.14068604,-0.10649395,2
-0.38475037,-0.2579956,-0.15437603,2
-0.41348267,-0.2292633,0.2203188,2
-0.2566681,-0.18138123,0.04433918,2
-0.24349976,-0.14787292,-0.21184063,2
-0.13215637,-0.26039124,0.1508913,2
-0.16088867,-0.23165894,0.29812336,2
-0.12258911,-0.19934082,-0.086138725,2
-0.21116638,-0.3262329,-0.011919975,2
-0.27461243,-0.3046875,0.3065157,2
-0.21356201,-0.274765,0.043148994,2
-0.27461243,-0.3262329,-0.03467083,2
-0.18005371,-0.38130188,0.08504963,2
-0.14173889,-0.29510498,0.012021065,2
-0.09265137,-0.16462708,-0.17113018,2
-0.13336182,-0.07484436,0.119763374,2
-0.13815308,0.005355835,0.1628542,2
-0.111816406,-0.14427185,-0.09691143,2
-0.14413452,-0.19335938,-0.18908978,2
-0.025619507,-0.14187622,-0.107684135,2
-0.06871033,0.019729614,0.15328693,2
-0.026824951,0.13703918,0.14370441,2
-0.12857056,0.24238586,-0.100497246,2
-0.2901764,0.16577148,-0.09691143,2
-0.41108704,0.13703918,0.15568256,2
-0.31053162,0.2842865,0.1341219,2
-0.1920166,0.4901886,-0.15796185,2
-0.13336182,0.6206665,-0.25612164,2
-0.19441223,0.5560303,-0.01790142,2
-0.31651306,0.52848816,0.2203188,2
-0.37158203,0.60272217,0.11378193,2
-0.41467285,0.65060425,-0.14599895,2
-0.33805847,0.7391815,-0.016711235,2
-0.3284912,0.8122101,0.15806293,2
-0.39312744,0.764328,-0.074160576,2
-0.3691864,0.59432983,-0.040652275,2
-0.40989685,0.60391235,0.29095173,2
-0.30574036,0.75953674,0.10659504,2
-0.29138184,0.76312256,-0.15556622,2
-0.2566681,0.74876404,0.057507515,2
-0.2614441,0.72361755,0.34481525,2
-0.2961731,0.73799133,0.043148994,2
-0.35243225,0.590744,-0.069384575,2
-0.37397766,0.62306213,0.004834175,2
-0.31532288,0.75953674,0.0251894,2
-0.40629578,0.75953674,-0.02748394,2
-0.37158203,0.685318,-0.009524345,2
-0.3763733,0.72003174,0.043148994,2
-0.37756348,0.7942505,-0.015505791,2
-0.4386139,0.73439026,0.04913044,2
-0.42425537,0.6745453,0.06350422,2
-0.3404541,0.6972809,-0.11845684,2
-0.36679077,0.76911926,-0.13641644,2
-0.35003662,0.7786865,0.10180378,2
-0.31651306,0.69129944,0.04913044,2
-0.38235474,0.6757355,-0.124453545,2
-0.40989685,0.7104492,0.13172626,2
-0.47094727,0.8253784,0.17841816,2
-0.37278748,0.80262756,-0.10649395,2
-0.39312744,0.7284088,-0.03467083,2
-0.38954163,0.7906647,0.1293459,2
-0.27461243,0.88523865,0.01800251,2
-0.36320496,0.887619,-0.059802055,2
-0.35961914,0.8074188,0.17722797,2
-0.387146,0.7822876,0.050335884,2
-0.40750122,0.73799133,-0.23936749,2
-0.41706848,0.76312256,-0.066988945,2
-0.41827393,0.8948059,0.110180855,2
-0.38116455,0.94628906,-0.016711235,2
-0.47453308,0.9139557,-0.0322752,2
-0.5463562,0.85769653,0.083844185,2
-0.4948883,0.8924103,-0.019106865,2
-0.42425537,0.95466614,-0.16994,2
-0.35601807,0.9343109,-0.06817913,2
-0.3464508,0.96902466,-0.07776165,2
-0.36679077,0.98817444,-0.11606121,2
-0.4194641,0.95825195,0.007229805,2
-0.39312744,1.0001526,0.04194355,2
-0.36080933,1.0755768,0.002453804,2
-0.4338379,1.0983124,-0.05382061,2
-0.46495056,1.0288849,-0.013110161,2
-0.49009705,1.0205078,0.047940254,2
-0.41108704,1.0312805,-0.16514874,2
-0.34165955,1.0300751,-0.117266655,2
-0.35482788,1.1521912,0.110180855,2
-0.3691864,1.203659,0.021603584,2
-0.3979187,1.1809082,0.026394844,2
-0.32609558,1.1701355,-0.11606121,2
-0.34165955,1.164154,-0.24655437,2
-0.45178223,1.2790833,-0.02748394,2
-0.49009705,1.3030243,-0.009524345,2
-0.49728394,1.2970276,-0.0610075,2
-0.44221497,1.3161926,-0.35548687,2
-0.41706848,1.2695007,-0.42970562,2
-0.466156,1.2730865,-0.10888958,2
-0.4948883,1.3401337,-0.023882866,2
-0.5391846,1.4586487,-0.019106865,2
-0.44580078,1.4442749,-0.36625957,2
-0.4853058,1.3712616,-0.44287395,2
-0.6505127,1.4442749,-0.14360332,2
-0.6361389,1.4622345,-0.023882866,2
-0.5942383,1.4382935,-0.090929985,2
-0.5164337,1.4514618,-0.39618206,2
-0.5248108,1.507721,-0.19746685,2
-0.51882935,1.507721,0.06828022,2
-0.5176239,1.3856201,-0.17592144,2
-0.5942383,1.3568878,-0.1807127,2
-0.5643158,1.4275208,0.06350422,2
-0.5248108,1.4023743,0.2705965,2
-0.5631256,1.3078003,-0.1340208,2
-0.6732483,1.2647095,-0.32077312,2
-0.64212036,1.3952026,0.17841816,2
-0.49249268,1.4801941,0.2203188,2
-0.43623352,1.3473053,-0.10170269,2
-0.52601624,1.2240143,-0.124453545,2
-0.59065247,1.1461945,-0.05382061,2
-0.5092468,1.045639,-0.0047330856,2
-0.37756348,0.9845886,-0.122057915,2
-0.3069458,0.9522705,-0.23338604,2
-0.16567993,0.7427826,-0.14958477,2
0.007904053,0.6925049,0.06110859,2
0.2700653,0.68292236,-0.2034483,2
0.29519653,0.6087036,-0.4596281,2
0.28323364,0.60032654,-0.122057915,2
0.13598633,0.70207214,0.019207954,2
-0.11300659,0.6781311,-0.19267559,2
-0.2794037,0.5883484,-0.1232481,2
-0.47453308,0.47583008,-0.066988945,2
-0.39312744,0.5045471,-0.2034483,2
-0.28419495,0.6589813,-0.25732708,2
-0.18843079,0.7260132,-0.22261333,2
-0.1812439,0.69010925,-0.026278496,2
-0.25785828,0.645813,0.021603584,2
-0.33207703,0.60510254,0.071881294,2
-0.33926392,0.65060425,0.023999214,2
-0.3656006,0.70925903,-0.20704937,2
-0.44700623,0.5991211,-0.086138725,2
-0.4888916,0.51293945,0.35918903,2
-0.2889862,0.6087036,0.1448946,2
-0.16807556,0.63983154,-0.15317059,2
-0.14173889,0.49856567,0.12695026,2
-0.15490723,0.51771545,0.37115192,2
-0.20877075,0.48660278,-0.021502495,2
-0.26264954,0.39682007,-0.031069756,2
-0.28659058,0.3740692,0.2203188,2
-0.27581787,0.4039917,0.014416695,2
-0.34165955,0.35850525,-0.093325615,2
-0.3572235,0.35491943,0.14610004,2
-0.30455017,0.38005066,0.04433918,2
-0.18962097,0.3237915,-0.083743095,2
-0.10223389,0.26513672,0.2023592,2
-0.018432617,0.25076294,0.25623798,2
-0.031600952,0.22563171,-0.01790142,2
-0.014846802,0.098739624,0.07307148,2
0.018676758,0.038879395,0.27299213,2
0.08570862,0.07119751,0.06350422,2
0.043807983,0.04008484,-0.00833416,2
-0.0040740967,-0.05329895,0.26940632,2
-0.09385681,-0.047317505,0.29095173,2
-0.09265137,-0.092803955,-0.083743095,2
-0.090270996,-0.19694519,-0.050219536,2
-0.09744263,-0.25201416,0.19039631,2
-0.13815308,-0.27236938,0.02758503,2
-0.18603516,-0.35017395,-0.05861187,2
-0.25546265,-0.32981873,0.110180855,2
-0.26383972,-0.22328186,0.004834175,2
-0.23989868,-0.29870605,-0.13881207,2
-0.19441223,-0.3848877,0.11378193,2
-0.18243408,-0.36813354,0.11378193,2
-0.16448975,-0.43756104,-0.052615166,2
-0.18005371,-0.4746704,0.15447712,2
-0.1237793,-0.47348022,0.14968586,2
-0.16088867,-0.4890442,0.05871296,2
-0.1453247,-0.46150208,0.16166401,2
-0.047164917,-0.34777832,0.03716755,2
0.017471313,-0.39207458,-0.105288506,2
0.034240723,-0.46868896,0.028775215,2
0.10127258,-0.50938416,0.23467731,2
0.08331299,-0.60395813,0.07786274,2
0.09408569,-0.7021179,0.01800251,2
0.11923218,-0.60635376,-0.0011472702,2
0.11204529,-0.547699,-0.1519804,2
0.23654175,-0.53334045,0.013226509,2
0.2197876,-0.5022125,0.21792316,2
0.22576904,-0.55607605,0.18081379,2
0.09887695,-0.68296814,0.16645527,2
-0.037597656,-0.6877594,0.021603584,2
-0.07829285,-0.7129059,-0.28006268,2
-0.16807556,-0.7667694,-0.026278496,2
-0.033996582,-0.7763519,0.28974628,2
-0.033996582,-0.690155,0.112576485,2
-0.054351807,-0.4710846,-0.19986248,2
-0.14413452,-0.39926147,-0.0023374557,2
-0.13694763,-0.30947876,0.21673298,2
-0.06272888,-0.46150208,0.11378193,2
-0.036392212,-0.49861145,-0.0011472702,2
0.017471313,-0.59439087,0.08504963,2
-0.036392212,-0.49143982,0.071881294,2
0.042617798,-0.51538086,-0.21303082,2
-0.054351807,-0.5465088,-0.0011472702,2
-0.039993286,-0.5129852,0.27897358,2
-0.07948303,-0.36573792,-0.15556622,2
0.07014465,-0.42559814,-0.30401897,2
-0.08308411,-0.37771606,0.098217964,2
0.07374573,-0.4459381,0.05631733,2
0.022262573,-0.3836975,0.002453804,2
0.22697449,-0.48306274,0.035962105,2
0.11204529,-0.4890442,0.11617756,2
0.09408569,-0.59916687,-0.0035429,2
-0.07710266,-0.55249023,0.1113863,2
0.012680054,-0.57403564,-0.0011472702,2
-0.12498474,-0.5465088,-0.00833416,2
-0.029205322,-0.5536804,-0.057406425,2
-0.090270996,-0.48664856,0.04913044,2
0.041412354,-0.48425293,0.009625435,2
-0.066329956,-0.41482544,-0.064593315,2
0.042617798,-0.47227478,-0.1412077,2
-0.087875366,-0.27954102,0.021603584,2
0.07852173,-0.012588501,-0.17592144,2
0.030639648,0.29266357,-0.119662285,2
-0.07110596,-0.09399414,0.23588276,2
-0.10343933,-0.4232025,0.37473774,2
-0.07350159,-0.43876648,-0.3111906,2
-0.19082642,-0.39926147,-0.60208416,2
-0.32011414,-0.1275177,0.4441805,2
-0.2099762,0.3453369,0.07546711,2
-0.2099762,0.11669922,-0.5757475,2
-0.25546265,-0.45672607,0.119763374,2
-0.32369995,0.0017700195,0.5746584,2
-0.044769287,0.28668213,-0.87622356,2
-0.13215637,0.28668213,-0.7050352,2
-0.059143066,0.0209198,0.48966694,2
-0.11898804,-0.076034546,0.3112917,2
-0.116607666,-0.25680542,-0.026278496,2
-0.16088867,-0.07723999,0.36517048,2
-0.10702515,0.01612854,0.20596027,2
-0.11779785,-0.32383728,-0.26330853,2
-0.4194641,-0.36694336,0.20715046,2
-0.29138184,-0.22688293,0.067090034,2
-0.23272705,0.070007324,-0.38901043,2
-0.18603516,0.08796692,-0.02987957,2
-0.33566284,0.008956909,0.22630024,2
-0.59902954,0.031692505,0.09223652,2
-0.72473145,-0.03414917,-0.3219633,2
-0.84085083,0.1693573,-0.26330853,2
-0.69958496,0.18133545,-0.2429533,2
-0.7295227,0.21725464,-0.293231,2
-0.5248108,-0.01977539,0.09701252,2
-0.40031433,-0.047317505,0.107785225,2
-0.32369995,0.08078003,-0.093325615,2
-0.111816406,-0.018585205,0.04673481,2
-0.12857056,0.048461914,0.50762653,2
0.14317322,-0.06765747,0.2921419,2
0.13479614,0.05683899,-0.010714531,2
0.23654175,0.084365845,0.117367744,2
0.19943237,0.18373108,0.04673481,2
0.2197876,-0.03414917,0.15926838,2
0.14796448,0.05204773,0.30891132,2
0.07014465,0.103530884,0.23229694,2
-0.11898804,0.105911255,-0.2716856,2
-0.3224945,0.03768921,-0.1807127,2
-0.43023682,0.017333984,0.013226509,2
-0.6110077,0.12626648,0.023999214,2
-0.61938477,0.1693573,-0.14479351,2
-0.7295227,0.11430359,-0.055010796,2
-0.6552887,0.09274292,-0.0322752,2
-0.5858612,0.15499878,-0.014315605,2
-0.4481964,0.23519897,-0.22261333,2
-0.28659058,0.18014526,-0.098116875,2
-0.29496765,0.12747192,0.076672554,2
-0.21476746,0.17774963,0.14370441,2
-0.23033142,0.254364,0.07786274,2
-0.12138367,0.22802734,0.062298775,2
-0.13934326,0.16098022,0.16524982,2
-0.18843079,0.12747192,0.15208149,2
-0.16567993,0.21725464,0.035962105,2
-0.16209412,0.27230835,-0.09691143,2
-0.06272888,0.23519897,0.023999214,2
-0.07350159,0.21485901,0.19756794,2
-0.09983826,0.3417511,-0.028674126,2
-0.07110596,0.2328186,-0.090929985,2
-0.28300476,0.16218567,0.27299213,2
-0.22193909,0.09992981,0.14729023,2
-0.35362244,0.055633545,-0.076556206,2
-0.29736328,-0.04850769,-0.057406425,2
-0.29736328,-0.17060852,0.055111885,2
-0.1237793,-0.21011353,-0.17233562,2
-0.0016784668,-0.19215393,-0.00833416,2
-0.056747437,-0.073654175,0.1736269,2
0.046203613,-0.02456665,0.09940815,2
-0.057937622,-0.05329895,0.008435249,2
0.04978943,-0.05809021,-0.035861015,2
0.10366821,0.008956909,0.069485664,2
0.07972717,0.12626648,-0.11606121,2
0.13000488,0.0065612793,-0.011919975,2
-0.06871033,-0.09159851,0.23707294,2
0.023452759,-0.111953735,0.16405964,2
0.0043029785,-0.02456665,0.026394844,2
0.042617798,0.103530884,0.0251894,2
0.1156311,0.010147095,0.069485664,2
0.005508423,-0.059280396,0.04673481,2
0.1335907,-0.1670227,0.29453754,2
0.09289551,-0.073654175,0.17602253,2
0.15274048,-0.047317505,-0.29443645,2
-0.0040740967,-0.17181396,-0.16754436,2
-0.15490723,-0.19934082,0.26101398,2
-0.1405487,-0.20413208,0.17483234,2
-0.07710266,-0.26039124,-0.18908978,2
0.10366821,-0.36094666,-0.035861015,2
0.027053833,-0.3034973,0.1341219,2
-0.035202026,-0.21250916,-0.081347466,2
0.07852173,-0.24124146,0.095822334,2
0.12640381,-0.31904602,0.30412006,2
0.30119324,-0.3406067,0.14610004,2
0.2305603,-0.23286438,-0.059802055,2
0.2305603,-0.13710022,0.021603584,2
0.21858215,-0.30947876,0.44657612,2
0.26287842,-0.45791626,0.46452045,0
0.48194885,-0.36454773,-0.42970562,0
0.34786987,-0.3549652,-0.82236004,0
0.27246094,-0.4411621,0.11855793,0
0.12521362,-0.29151917,0.64887714,0
0.09648132,-0.25320435,0.05631733,0
0.18507385,-0.48783875,-0.21542645,0
0.08691406,-0.40045166,-0.074160576,0
0.058181763,-0.28193665,-0.15556622,0
-0.15371704,-0.4064331,-0.01790142,0
-0.04837036,-0.42080688,0.15926838,0
0.16711426,-0.3058777,-0.023882866,0
0.12402344,-0.2472229,-0.29085064,0
0.11923218,-0.2759552,-0.117266655,0
-0.008865356,-0.26278687,0.0012483597,0
-0.111816406,-0.3406067,0.09940815,0
-0.095047,-0.50579834,0.3112917,0
0.09289551,-0.47348022,0.19877338,0
0.35624695,-0.31666565,-0.19027996,0
0.29640198,-0.30827332,-0.16633892,0
0.37780762,-0.38609314,0.30770588,0
0.44963074,-0.3453827,0.39390278,0
0.35386658,-0.18258667,0.095822334,0
0.19824219,-0.2579956,-0.066988945,0
-0.07710266,-0.13470459,-0.24655437,0
-0.22673035,-0.14068604,-0.32077312,0
-0.5176239,-0.33581543,-0.13881207,0
-0.50445557,-0.5213623,0.295743,0
-0.27342224,-0.35975647,0.26461506,0
-0.20758057,-0.18258667,-0.2609129,0
-0.28778076,-0.18856812,-0.25493145,0
-0.49728394,-0.09638977,0.19996357,0
-0.5679016,0.005355835,0.2131319,0
-0.41108704,-0.011398315,0.2131319,0
-0.22673035,-0.18617249,0.1401186,0
-0.055541992,-0.18856812,0.11617756,0
-0.09385681,0.04486084,0.11617756,0
-0.09983826,0.13105774,0.3579836,0
-0.030410767,0.041275024,0.66564655,0
0.017471313,-0.14666748,0.09223652,0
0.15394592,-0.32504272,-0.7529173,0
0.27246094,-0.2292633,-0.30520916,0
0.19345093,0.11190796,0.86555195,0
0.14556885,0.21006775,0.6644411,0
0.10006714,0.011352539,-0.119662285,0
0.07014465,0.029296875,-0.49673748,0
-0.17047119,0.002960205,-0.46322918,0
-0.2961731,-0.15744019,0.13293171,0
-0.13694763,-0.01737976,0.2885561,0
-0.017242432,0.084365845,-0.10888958,0
-0.060333252,-0.071258545,-0.41653728,0
-0.057937622,0.03529358,-0.05382061,0
-0.15490723,0.14303589,0.7015505,0
-0.09864807,-0.012588501,0.41784382,0
-0.049560547,0.03768921,-0.28485394,0
0.07493591,0.05444336,-0.27408123,0
0.201828,0.067611694,-0.055010796,0
0.19584656,0.3632965,0.03956318,0
0.25091553,0.40159607,0.112576485,0
0.12521362,0.096343994,0.04913044,0
0.09648132,-0.0987854,-0.112475395,0
0.16830444,-0.08920288,-0.36027813,0
-4.8828125E-4,0.09036255,0.043148994,0
-0.024429321,0.34054565,0.7446413,0
-0.044769287,0.49258423,0.2490511,0
0.021072388,0.013748169,-0.48596478,0
-0.09625244,-0.40882874,-0.21901226,0
-0.12738037,-0.0078125,0.32446003,0
0.08810425,0.48898315,0.36037922,0
0.27246094,0.3237915,0.33404255,0
0.35386658,0.16577148,-0.095721245,0
0.27844238,0.19689941,-0.6236448,0
0.12402344,0.11430359,-0.16156292,0
0.1443634,0.18612671,0.6608553,0
0.11204529,0.36927795,0.35918903,0
0.06774902,0.33216858,-0.5135069,0
0.017471313,0.12626648,-0.7720823,0
-0.17765808,0.26153564,-0.1340208,0
-0.37876892,0.30464172,0.56149006,0
-0.44580078,0.27949524,0.55790424,0
-0.07470703,0.353714,0.20954609,0
0.35505676,0.26393127,-0.38540936,0
0.3287201,0.21006775,-0.47041607,0
0.24372864,0.27230835,0.119763374,0
0.14196777,0.24957275,0.48487568,0
0.08570862,0.18852234,0.43818378,0
0.17070007,0.35731506,-0.1519804,0
0.08091736,0.3740692,-0.74693584,0
-0.059143066,0.2735138,-0.13522625,0
-0.2207489,0.30104065,0.5998049,0
-0.12857056,0.30822754,0.36277485,0
0.13479614,0.18612671,-0.24655437,0
0.09408569,0.23161316,-0.38421917,0
0.023452759,0.34414673,-0.10409832,0
-0.24110413,0.24597168,0.2310915,0
-0.32369995,0.20048523,0.22869587,0
-0.2506714,0.11907959,-0.18908978,0
-0.20039368,0.2160492,-0.35667706,0
-0.055541992,0.103530884,0.2131319,0
-0.13575745,-0.15864563,0.537549,0
-0.017242432,-0.35377502,0.17722797,0
0.08570862,-0.2364502,-0.3399229,0
-0.05316162,-0.01737976,-0.1807127,0
-0.17166138,-0.0413208,0.27897358,0
-0.31411743,-0.104766846,0.14251423,0
-0.19560242,-0.1849823,-0.035861015,0
-0.1237793,-0.14068604,-0.081347466,0
-0.12857056,-0.066467285,-0.15437603,0
-0.12498474,-0.0030212402,0.1628542,0
-0.057937622,0.086761475,0.37354755,0
0.016281128,-0.076034546,-0.02748394,0
0.037826538,-0.26997375,-0.31956768,0
-0.2099762,-0.13230896,-0.090929985,0
-0.39312744,0.0149383545,0.3567934,0
-0.31532288,-0.13589478,0.25024128,0
-0.13336182,-0.23526001,-0.057406425,0
0.005508423,-0.21609497,-0.2429533,0
-0.18603516,-0.2579956,-0.40695477,0
-0.3368683,-0.2579956,-0.0657835,0
-0.21595764,-0.13710022,0.592618,0
0.11802673,-0.037734985,0.5626955,0
0.16352844,-0.274765,-0.15077496,0
0.060577393,-0.53811646,-0.51111126,0
-0.10821533,-0.42199707,0.071881294,0
-0.11300659,-0.31904602,0.5195894,0
-0.12857056,-0.56326294,0.32685566,0
-0.0435791,-0.7272644,-0.14718914,0
-0.060333252,-0.5692444,-0.50033855,0
-0.25427246,-0.47587585,-0.1914854,0
-0.3009491,-0.6015625,0.44297504,0
-0.2710266,-0.5979767,0.5028353,0
-0.15011597,-0.6734009,-0.10888958,0
-0.09625244,-0.7093048,-0.4991331,0
-0.21116638,-0.67219543,-0.098116875,0
-0.31651306,-0.6769867,0.3460207,0
-0.2602539,-0.7236786,0.28616047,0
-0.087875366,-0.6398773,-0.23936749,0
0.017471313,-0.61354065,-0.56138897,0
-0.037597656,-0.6578369,-0.18908978,0
-0.13694763,-0.64227295,0.5638857,0
-0.17884827,-0.6769867,0.6213503,0
-0.27700806,-0.83740234,0.1915865,0
-0.19680786,-0.82302856,0.0036439896,0
-0.030410767,-0.705719,-0.09691143,0
-0.1058197,-0.75839233,-0.20704937,0
-0.17047119,-0.7129059,-0.39140606,0
-0.1525116,-0.6003723,-0.6356077,0
-0.2506714,-0.5465088,-0.3076048,0
-0.29377747,-0.5429077,0.6069765,0
-0.33805847,-0.53692627,0.91224384,0
-0.26863098,-0.59558105,0.14370441,0
-0.1920166,-0.6159363,-0.85109234,0
-0.036392212,-0.7284546,-0.82475567,0
0.13598633,-0.9403534,0.013226509,0
0.18746948,-0.8673248,0.87632465,0
0.459198,-0.4303894,0.805707,0
0.5561676,-0.107162476,0.1915865,0
0.34547424,-0.40763855,-0.21542645,0
0.06295776,-0.77275085,-0.30401897,0
-0.04118347,-0.95591736,0.17841816,0
0.08810425,-0.97506714,0.4070711,0
0.19824219,-0.74401855,0.09223652,0
0.27604675,-0.5022125,-0.07057476,0
0.2700653,-0.5620575,-0.22978497,0
0.08451843,-0.7571869,-0.21542645,0
-0.09983826,-0.80148315,-0.066988945,0
-0.16926575,-0.6470642,0.11617756,0
0.09887695,-0.6889496,0.18320942,0
0.18267822,-0.74401855,0.05631733,0
0.14196777,-0.7823334,-0.17711163,0
-0.1058197,-0.7859192,-0.0322752,0
-0.18722534,-0.7260742,0.4070711,0
0.042617798,-0.7248688,0.19279194,0
0.23774719,-0.7883148,-0.33154583,0
0.2999878,-0.77275085,-0.5135069,0
0.20541382,-0.65663147,-0.112475395,0
0.028244019,-0.3908844,0.41186237,0
-0.15490723,-0.056884766,0.45016193,0
-0.25904846,0.20048523,-0.0011472702,0
-0.24588013,0.010147095,-0.3219633,0
-0.18363953,-0.3226471,-0.2716856,0
-0.18243408,-0.22088623,0.038357735,0
-0.08906555,-0.25082397,0.19637775,0
0.017471313,-0.30947876,0.2717867,0
0.15634155,-0.17658997,0.14849567,0
0.13119507,-0.085617065,-0.110079765,0
0.06774902,-0.15744019,0.117367744,0
-0.018432617,-0.19096375,0.37473774,0
-0.014846802,-0.22567749,0.21552753,0
-0.023223877,-0.2292633,-0.16156292,0
-0.011260986,-0.22328186,-0.13641644,0
0.061767578,-0.27716064,0.06110859,0
0.0821228,-0.27716064,0.25144672,0
0.013885498,-0.1454773,0.25384235,0
-0.054351807,-0.099975586,-0.0610075,0
-0.09864807,-0.28793335,-0.29085064,0
-0.09625244,-0.34777832,-0.12803936,0
-0.1525116,-0.22688293,0.1401186,0
-0.12857056,-0.22088623,0.41186237,0
-0.03878784,-0.3046875,0.3208742,0
0.018676758,-0.26278687,-0.114871025,0
0.013885498,-0.24124146,-0.4656248,0
-0.024429321,-0.20532227,-0.15437603,0
-0.026824951,-0.18019104,0.11378193,0
-0.13815308,-0.11314392,0.0539217,0
-0.15730286,-0.17658997,0.03237629,0
-0.13815308,-0.19815063,0.14968586,0
-0.20399475,-0.27116394,0.122159004,0
-0.2602539,-0.32383728,-0.093325615,0
-0.22912598,-0.10836792,-0.1914854,0
-0.16926575,-0.010192871,-0.20225811,0
0.0761261,-0.18617249,-0.17352581,0
0.13240051,-0.29631042,-0.015505791,0
-0.037597656,-0.19694519,0.064694405,0
-0.12138367,-0.12870789,-0.02508831,0
-0.057937622,-0.102371216,0.17602253,0
0.030639648,-0.025756836,0.21433735,0
0.039016724,-0.071258545,-0.17711163,0
-0.039993286,0.05923462,-0.38540936,0
-0.07110596,0.30464172,-0.069384575,0
-0.13815308,0.32139587,0.27657795,0
-0.17286682,0.105911255,0.2717867,0
-0.2207489,-0.016189575,-0.02269268,0
-0.26504517,0.096343994,-0.3578825,0
-0.23272705,0.043670654,-0.26211834,0
-0.16926575,0.081970215,0.4693117,0
-0.2506714,0.25675964,0.5339632,0
-0.24349976,0.21006775,-0.26211834,0
-0.061538696,-0.02935791,-0.42731,0
0.1048584,-0.02696228,0.16524982,0
0.10964966,0.1466217,0.34362507,0
0.1048584,0.15499878,0.11378193,0
0.053390503,0.105911255,0.086239815,0
-0.030410767,0.21125793,0.014416695,0
0.037826538,0.0017700195,-0.16156292,0
0.06416321,-0.10357666,0.05152607,0
-0.0040740967,0.2088623,0.16524982,0
-0.051956177,0.23880005,-0.02748394,0
-0.047164917,-0.04611206,-0.0023374557,0
-0.06871033,-0.05090332,0.14968586,0
-0.08666992,0.175354,-0.090929985,0
-0.116607666,0.15260315,-0.02748394,0
-0.11898804,-0.00541687,0.3687563,0
-0.095047,0.026916504,0.19398212,0
-0.051956177,-0.023361206,-0.16633892,0
-0.019638062,0.0041656494,0.0060396194,0
-0.07710266,0.084365845,0.091031075,0
-0.07948303,0.10232544,-0.03944683,0
-0.014846802,0.07359314,0.076672554,0
0.011489868,0.1250763,0.050335884,0
-0.012451172,0.13105774,-0.1519804,0
-0.090270996,0.031692505,-0.04184246,0
-0.08308411,0.041275024,0.19279194,0
-0.054351807,0.14183044,0.01800251,0
-0.061538696,0.12866211,-0.119662285,0
-0.042373657,0.02571106,0.010830879,0
-0.014846802,0.05204773,0.17123127,0
0.043807983,0.036483765,0.043148994,0
0.012680054,0.06642151,0.05152607,0
-0.025619507,0.074798584,0.15328693,0
-0.12738037,0.036483765,0.12334919,0
-0.17765808,-0.0018157959,0.07307148,0
-0.2099762,0.02810669,-0.05382061,0
-0.16807556,0.096343994,-0.12803936,0
-0.11300659,0.12747192,-0.0657835,0
0.012680054,0.067611694,0.093426704,0
0.019866943,0.02810669,0.16764545,0
7.171631E-4,0.041275024,0.035962105,0
-0.08427429,0.05204773,-0.11128521,0
-0.10223389,0.012542725,0.013226509,0
-0.13815308,0.053253174,0.13651752,0
-0.11300659,0.08557129,0.008435249,0
-0.03878784,0.09753418,-0.10409832,0
0.019866943,0.07359314,0.002453804,0
-0.0028686523,0.089157104,0.07786274,0
-0.032806396,0.07598877,0.06350422,0
-0.10821533,0.077194214,0.055111885,0
-0.12498474,0.0065612793,0.0539217,0
-0.111816406,0.03529358,0.013226509,0
-0.06752014,0.09274292,-0.014315605,0
-0.059143066,0.113098145,-0.011919975,0
-0.026824951,0.04486084,0.031170845,0
-0.026824951,0.036483765,0.06350422,0
-0.017242432,-0.004211426,0.10419941,0
-0.060333252,0.0783844,0.079068184,0
-0.08666992,0.096343994,0.0036439896,0
-0.15490723,0.017333984,0.028775215,0
-0.13096619,0.0209198,0.007229805,0
-0.11061096,0.084365845,-0.12085247,0
-0.06272888,0.081970215,-0.0610075,0
-0.033996582,0.09036255,0.1293459,0
0.021072388,0.09036255,0.13891315,0
0.10006714,0.050857544,-0.11606121,0
0.10606384,0.12387085,-0.19627666,0
0.05458069,0.120285034,-0.013110161,0
0.028244019,0.108306885,0.300519,0
0.003112793,0.115493774,0.24067402,0
0.007904053,0.13224792,0.033566475,0
0.009094238,0.11907959,-0.10649395,0
-0.03878784,0.12986755,-0.076556206,0
-0.017242432,0.091552734,0.04433918,0
-0.0040740967,0.077194214,0.13772297,0
0.013885498,0.105911255,0.1448946,0
0.034240723,0.077194214,-0.02029705,0
0.005508423,0.070007324,-0.0610075,0
-0.05076599,0.098739624,-0.05861187,0
-0.04837036,0.10232544,0.088635445,0
-0.007659912,0.013748169,0.18200397,0
0.05697632,-0.054489136,0.12574482,0
7.171631E-4,-0.018585205,-0.0370512,0
-0.055541992,0.1250763,-0.23338604,0
-0.0064697266,0.1250763,-0.19027996,0
0.11923218,0.07119751,0.12574482,0
0.201828,0.1645813,0.25024128,0
0.11204529,0.21006775,-0.06817913,0
-0.060333252,0.091552734,-0.28126812,0
-0.15011597,-0.03175354,-0.0047330856,0
-0.114212036,0.07359314,0.3460207,0
0.024658203,0.14781189,0.2885561,0
0.14077759,0.070007324,-0.035861015,0
0.12402344,0.098739624,-0.16873455,0
0.17549133,0.03050232,-0.124453545,0
0.10366821,0.058029175,0.19517231,0
7.171631E-4,0.1585846,0.3615694,0
0.0066986084,0.14183044,-0.07057476,0
-0.033996582,0.067611694,-0.2704954,0
-0.035202026,0.07359314,-0.083743095,0
0.029449463,0.09274292,0.10180378,0
0.09049988,0.058029175,0.2885561,0
0.12162781,0.0783844,0.15806293,0
0.16590881,0.115493774,-0.20225811,0
0.13957214,0.053253174,-0.3111906,0
0.05697632,0.110702515,0.019207954,0
-0.018432617,0.11669922,0.3388338,0
-0.0016784668,0.086761475,0.23588276,0
-0.016036987,0.09992981,-0.01790142,0
0.025848389,0.08317566,-0.19267559,0
0.045013428,0.12747192,-0.10649395,0
0.10006714,0.05444336,0.093426704,0
0.09768677,-0.014984131,0.1113863,0
0.1156311,0.1250763,0.03237629,0
0.09768677,0.1693573,-0.13881207,0
0.030639648,0.065216064,-0.24055767,0
-0.14294434,0.0041656494,-0.12803936,0
-0.14772034,0.08557129,0.06110859,0
0.012680054,0.2040863,0.2634096,0
0.11444092,0.19689941,0.3065157,0
0.1802826,0.086761475,-0.02508831,0
0.17190552,-0.040130615,-0.09930706,0
0.12162781,-0.037734985,0.11378193,0
0.1730957,0.17774963,0.21912861,0
0.18984985,0.19689941,0.2023592,0
0.21499634,-0.0078125,0.09701252,0
0.23774719,-0.03652954,-0.0023374557,0
0.23893738,-0.047317505,0.062298775,0
0.19584656,-0.09638977,0.41305256,0
0.11923218,-0.028152466,0.43459797,0
0.0821228,0.0783844,-0.02987957,0
0.027053833,0.2040863,-0.31479168,0
-0.12617493,0.21725464,-0.2321806,0
-0.31292725,0.26393127,-0.011919975,0
-0.41348267,0.40759277,-0.015505791,0
-0.29138184,0.69010925,-0.18429852,0
-0.11779785,0.90678406,-0.21661663,0
0.034240723,1.0384674,-0.15077496,0
0.03543091,1.0360718,-0.26809978,0
0.0066986084,1.0013428,-0.34231853,0
0.022262573,1.0695801,-0.10409832,0
0.10845947,1.1976776,-0.011919975,0
0.23295593,1.1845093,-0.19267559,0
0.18626404,1.1019135,-0.05861187,0
0.12281799,1.1066895,0.04913044,0
0.09529114,1.0671844,0.071881294,0
-0.044769287,1.0133209,0.3687563,0
-0.061538696,1.0480347,0.39509296,0
0.0043029785,1.0659943,0.1341219,0
0.16471863,1.0408478,0.052731514,0
0.2305603,0.98339844,0.3065157,0
0.19703674,1.0839539,0.49685383,0
0.3107605,0.91874695,0.3172884,0
0.17070007,0.7894592,0.12095356,0
0.11444092,0.527298,-0.035861015,0
-0.087875366,0.49856567,-0.0610075,0
-0.22793579,0.24957275,0.09461689,0
-0.22554016,-0.102371216,0.01800251,0
-0.2207489,-0.21969604,0.22869587,0
0.0713501,-0.4746704,0.02039814,0
0.07254028,-0.4016571,-0.13162518,0
0.17430115,-0.32144165,-0.0657835,0
0.27844238,-0.11076355,0.13891315,0
0.37660217,0.007751465,0.26461506,0
0.4759674,-0.0078125,-0.17352581,0
0.48913574,-0.21490479,-0.19507122,0
0.32992554,-0.14187622,-0.01790142,0
0.26766968,-0.097595215,-0.13522625,0
0.20063782,-0.032943726,-0.35309124,0
0.23535156,0.048461914,-0.2381773,0
0.21141052,0.24717712,-0.253726,0
0.2532959,0.527298,-0.19027996,0
0.27963257,0.99057007,-0.19267559,0
0.27604675,1.4095612,-0.019106865,0
0.14317322,1.5795441,0.093426704,0
0.05218506,1.4777985,0.0012483597,0
-0.010055542,1.2431641,-0.05382061,0
-0.19322205,1.2862549,0.15926838,0
-0.25427246,1.4263153,0.15447712,0
-0.2889862,1.3820343,0.13772297,0
-0.29496765,1.4358978,0.46333027,0
-0.15132141,1.6130676,0.29453754,0
0.0019073486,1.4299164,-0.21063519,0
0.14077759,1.2802734,0.13651752,0
0.10725403,1.4215393,0.6788149,0
0.08929443,1.4586487,0.49685383,0
0.09049988,1.1725311,0.2490511,0
0.19345093,0.88523865,0.15926838,0
0.20661926,0.9606476,0.18679523,0
0.22097778,0.9522705,-0.100497246,0
0.39337158,0.8146057,-0.2274046,0
0.68666077,0.7499542,-0.12564373,0
0.7501068,0.8924103,-0.1340208,0
0.5561676,0.9498749,-0.059802055,0
0.21858215,0.90797424,0.008435249,0
-0.08308411,0.91516113,0.045544624,0
-0.3189087,0.9606476,-0.016711235,0
-0.42904663,0.98579407,-0.2704954,0
-0.41108704,0.98817444,-0.4488554,0
-0.3464508,1.1031036,-0.19267559,0
-0.40031433,1.164154,0.3280611,0
-0.33328247,1.1485901,0.3292513,0
-0.18363953,1.3018188,-0.1627531,0
-0.18603516,1.416748,-0.36386395,0
-0.20399475,1.2479553,-0.26330853,0
