gyro_x,gyro_y,gyro_z,gyro_angvel,label
0.208526611328125,-1.4799652099609375,-0.0808868408203125,1.4967708746981294,0
-0.0023956298828125,0.2660064697265625,-0.0734405517578125,0.27596864970756363,0
-0.0620574951171875,0.8007659912109375,-0.0702362060546875,0.8062322432284704,0
0.08282470703125,-0.946258544921875,-0.0723724365234375,0.9526294848999874,0
-0.0236968994140625,0.111541748046875,-0.078765869140625,0.1385899229405616,0
0.003997802734375,0.503570556640625,-0.0638427734375,0.5076171664377042,0
0.058319091796875,-0.4743499755859375,-0.0521240234375,0.48075558200160806,0
-0.0556640625,0.388519287109375,-0.0574493408203125,0.39666881787036057,0
-0.0609893798828125,0.1520233154296875,-0.0489349365234375,0.170954441022388,0
0.0412750244140625,-0.3284149169921875,-0.0244293212890625,0.33189874522512297,0
-0.0034637451171875,0.19464111328125,-0.0276336669921875,0.19662344738366366,0
0.0114593505859375,-0.0844573974609375,-0.044677734375,0.09623132884154335,0
0.0380859375,-0.0407867431640625,-0.0404052734375,0.06889617677886233,0
0.02850341796875,0.1285858154296875,-0.0169830322265625,0.13279751559885214,0
-0.005584716796875,-0.1782073974609375,-0.0020599365234375,0.1783067831294773,0
-0.0354156494140625,-0.0961761474609375,-0.008453369140625,0.10283763422830891,0
0.0966796875,-0.0034942626953125,-0.0372161865234375,0.10365431195193377,0
0.09454345703125,0.068939208984375,-0.090484619140625,0.1479139821106683,0
0.0327606201171875,0.1967620849609375,-0.123504638671875,0.23461025570530428,0
0.0764312744140625,-0.3028411865234375,-0.1298980712890625,0.33827212845296545,0
0.0647125244140625,-0.03546142578125,-0.2204437255859375,0.2324664700224268,0
0.0231781005859375,0.207427978515625,-0.189544677734375,0.28194108511403315,0
-0.0631103515625,0.0646820068359375,-0.029754638671875,0.09514208850535315,0
-0.019439697265625,0.08917236328125,0.037353515625,0.09861489407026451,0
0.02423095703125,-0.02587890625,0.0671844482421875,0.07596451245781641,0
0.0178375244140625,0.0039520263671875,0.048004150390625,0.05136335507299891,0
0.0551300048828125,0.1754608154296875,0.048004150390625,0.19007949296111754,0
0.142486572265625,0.045501708984375,0.049072265625,0.15741955421762724,0
0.1009368896484375,0.1211395263671875,0.0171051025390625,0.1586052491982507,0
0.048736572265625,0.2574920654296875,0.0171051025390625,0.26262140386556615,0
0.015716552734375,-0.010955810546875,0.0671844482421875,0.06986265025175167,0
-0.0258331298828125,-0.0397186279296875,0.1800994873046875,0.18622767069254373,0
-0.0151824951171875,-0.0034942626953125,0.22802734375,0.22855893666065202,0
-0.045013427734375,-0.0855255126953125,0.174774169921875,0.19971688078395952,0
-0.0748291015625,-0.0738067626953125,0.1225738525390625,0.16146573006827472,0
-0.0727081298828125,-0.024810791015625,0.0746307373046875,0.1071064631687473,0
-0.078033447265625,0.0859832763671875,0.0756988525390625,0.13860973624794165,0
-0.0236968994140625,0.00927734375,0.094879150390625,0.09823271007023422,0
0.0306243896484375,0.03485107421875,0.118316650390625,0.1270876877403847,0
0.0551300048828125,0.1403045654296875,0.1247100830078125,0.19564583645610217,0
0.0572662353515625,-0.0098876953125,0.1119232177734375,0.12611104196974068,0
-0.01092529296875,0.04656982421875,0.12896728515625,0.13755243071204445,0
-0.052459716796875,0.0614776611328125,0.1811676025390625,0.19837647268393743,0
-0.04180908203125,-0.001373291015625,0.19927978515625,0.20362298013836883,0
-0.0482025146484375,0.0369720458984375,0.1854248046875,0.19512245588282892,0
-0.0513916015625,0.0050201416015625,0.1737060546875,0.18121835439037412,0
-0.0439453125,0.0273895263671875,0.1577301025390625,0.16601253534695712,0
-0.0396728515625,-0.0397186279296875,0.1545257568359375,0.16440715945918047,0
-0.009857177734375,-0.010955810546875,0.1651763916015625,0.1658325483134683,0
0.0199737548828125,0.0060882568359375,0.1428070068359375,0.1443255312024124,0
0.003997802734375,-0.0972442626953125,0.1364288330078125,0.16758656130409597,0
-0.03009033203125,-0.01416015625,0.1353607177734375,0.13938601803235318,0
-0.087615966796875,0.1456298828125,0.172637939453125,0.24225705055654095,0
0.006134033203125,-0.03759765625,0.1694488525390625,0.17367821897300523,0
-0.029022216796875,0.0646820068359375,0.1225738525390625,0.14159943644802023,0
-0.0034637451171875,-0.0993804931640625,0.1268310546875,0.16116636244859758,0
-0.0609893798828125,0.035919189453125,0.1449432373046875,0.16130230832143244,0
-0.0482025146484375,0.0497589111328125,0.1460113525390625,0.1616129534593139,0
0.01678466796875,-0.024810791015625,0.1342926025390625,0.13759289053710885,0
-0.0343475341796875,0.022064208984375,0.1673126220703125,0.17222106702251672,0
-0.0045318603515625,-0.0738067626953125,0.1555938720703125,0.17227138184748217,0
-0.009857177734375,-0.057830810546875,0.139617919921875,0.15144216772321606,0
-0.0151824951171875,0.07958984375,0.1438751220703125,0.16512147690981982,0
0.01251220703125,-0.11322021484375,0.1364288330078125,0.17773069191878862,0
0.02850341796875,-0.1345367431640625,0.1321563720703125,0.19072987908526826,0
7.9345703125E-4,0.0146026611328125,0.1215057373046875,0.12238264372114177,0
7.9345703125E-4,-0.0216064453125,0.127899169921875,0.12971378384661805,0
0.01251220703125,-0.04718017578125,0.14068603515625,0.1489130108470315,0
-0.0354156494140625,0.07958984375,0.127899169921875,0.15474821200347955,0
0.0082550048828125,-0.0759429931640625,0.1119232177734375,0.1355075274407013,0
0.0231781005859375,-0.0652923583984375,0.114044189453125,0.13344059936924038,0
-0.0205078125,0.0849151611328125,0.1097869873046875,0.14030088219674985,0
0.0231781005859375,-0.104705810546875,0.1087188720703125,0.15270993501829175,0
-0.0151824951171875,-0.06634521484375,0.107666015625,0.12737412064940629,0
-0.01837158203125,0.0369720458984375,0.1097869873046875,0.11729292299915937,0
0.0146484375,-0.0205535888671875,0.114044189453125,0.11680369807729997,0
0.013580322265625,-0.0045623779296875,0.1151123046875,0.11600035834289205,0
-0.01837158203125,-0.0684814453125,0.11724853515625,0.13701986124174215,0
-0.0343475341796875,0.0518951416015625,0.1151123046875,0.13085756193869294,0
0.0029296875,0.0955657958984375,0.114044189453125,0.14882029956484344,0
-2.593994140625E-4,0.0284576416015625,0.0980682373046875,0.10211407259348487,0
0.0178375244140625,-0.2335968017578125,0.1002044677734375,0.25480694345025,0
-0.01837158203125,-0.0748748779296875,0.125762939453125,0.14751298014482297,0
-0.005584716796875,-0.01416015625,0.137481689453125,0.13832177710545515,0
0.0380859375,-0.1345367431640625,0.1119232177734375,0.17910187205388764,0
-0.0023956298828125,0.10302734375,0.092742919921875,0.1386420635967,0
0.001861572265625,0.0859832763671875,0.125762939453125,0.152357822923625,0
-0.0364837646484375,0.3267364501953125,0.1502685546875,0.36148085910187094,0
-0.054595947265625,0.5525665283203125,0.0991363525390625,0.5640376778837943,1
0.0103912353515625,0.0742645263671875,0.0639801025390625,0.09857307527709178,1
0.0199737548828125,-0.2474517822265625,0.0799560546875,0.26081469684895303,1
0.00506591796875,-0.0386505126953125,0.094879150390625,0.10257474755183876,1
-0.0258331298828125,0.019927978515625,0.073577880859375,0.08048713859380177,1
-0.0205078125,0.16162109375,0.024566650390625,0.1647588195815224,1
-0.007720947265625,-0.0567626953125,0.038421630859375,0.06897708549737622,1
-0.06524658203125,0.0188751220703125,0.0746307373046875,0.10091151396431979,1
-0.017303466796875,0.055084228515625,0.0661163330078125,0.08777842379965652,1
0.025299072265625,-0.0802001953125,0.0554656982421875,0.10074005195133594,1
-0.0023956298828125,-0.0088348388671875,0.0511932373046875,0.052005201336776295,1
-0.0119781494140625,-0.01416015625,0.048004150390625,0.051462457608782756,1
-0.0045318603515625,-0.1036376953125,0.045867919921875,0.11342475799353591,1
-0.0236968994140625,-0.0514373779296875,0.0405426025390625,0.06964947602647198,1
-0.0748291015625,-0.0748748779296875,0.060791015625,0.12207042789453774,1
-0.0961456298828125,-0.2783355712890625,0.0863494873046875,0.30687278528431605,1
-0.05352783203125,-0.00244140625,0.104461669921875,0.11740285239000804,1
-0.009857177734375,-0.205902099609375,0.1566619873046875,0.2589127591345975,1
0.048736572265625,-0.4860687255859375,0.17156982421875,0.5177588860187652,1
0.015716552734375,0.3597564697265625,0.0682373046875,0.36650792254873044,1
0.0540618896484375,0.2585601806640625,0.0309600830078125,0.26595973694761227,1
0.0785675048828125,0.3949127197265625,0.0203094482421875,0.40316421308598727,1
0.02423095703125,0.6452484130859375,0.059722900390625,0.6484593115220411,1
0.0540618896484375,0.247894287109375,0.092742919921875,0.2701398058218381,1
-0.007720947265625,-0.135589599609375,0.084228515625,0.15980799539854085,1
-0.0279693603515625,-0.16009521484375,0.0970001220703125,0.18926644344943336,1
-0.0354156494140625,-0.06634521484375,0.08209228515625,0.11133327911392081,1
-0.0162506103515625,-0.13665771484375,0.061859130859375,0.1508839469055316,1
-0.0087890625,-0.2687530517578125,0.0639801025390625,0.2764035165653203,1
-0.0492706298828125,-0.1185455322265625,0.0533294677734375,0.13901320193753602,1
-0.021575927734375,-0.0546417236328125,0.050140380859375,0.07723533137034379,1
0.0071868896484375,-0.161163330078125,0.04693603515625,0.16801268327384758,1
-0.0045318603515625,-0.0173492431640625,0.0522613525390625,0.055251995129805116,1
0.001861572265625,-0.0567626953125,0.07037353515625,0.09043176146038409,1
0.00506591796875,-0.092987060546875,0.07037353515625,0.11672485341349655,1
0.0093231201171875,0.02313232421875,0.0522613525390625,0.057907460328467594,1
0.0231781005859375,0.035919189453125,0.026702880859375,0.050402940032614155,1
0.01251220703125,-0.071685791015625,0.014984130859375,0.0742962457728491,1
0.013580322265625,-0.08233642578125,0.024566650390625,0.0869898412154242,1
-0.009857177734375,0.092376708984375,0.050140380859375,0.1055683575149019,1
0.0178375244140625,-0.1324005126953125,0.048004150390625,0.14195940086492906,1
0.0529937744140625,-0.2144317626953125,0.0554656982421875,0.22774056437262283,1
0.1020050048828125,-0.4413299560546875,0.0416107177734375,0.45487207318761136,0
0.0306243896484375,-0.0642242431640625,0.0075225830078125,0.07154855628484326,0
-0.0631103515625,0.294769287109375,0.0320281982421875,0.3031462593863767,0
0.001861572265625,-0.31988525390625,0.073577880859375,0.32824342441200943,0
0.0114593505859375,-0.0034942626953125,0.037353515625,0.03922769069397787,0
0.0114593505859375,0.0178070068359375,-0.03082275390625,0.03739583354695815,0
0.050872802734375,0.099822998046875,-0.009521484375,0.11244257050521574,0
0.1083984375,-0.01416015625,0.0426788330078125,0.11735507685811708,0
0.037017822265625,-0.229339599609375,0.0852813720703125,0.24746693422854077,0
-0.0034637451171875,0.07000732421875,0.094879150390625,0.11796218102999306,0
-0.0631103515625,-0.043975830078125,0.084228515625,0.11406679161698789,0
-0.0258331298828125,0.11474609375,0.026702880859375,0.12061119548622352,0
0.0327606201171875,-0.151580810546875,-0.043609619140625,0.1610956214119448,0
-0.0482025146484375,-0.0301361083984375,-0.0606536865234375,0.08312964054246012,0
-0.0716400146484375,0.293701171875,-0.0638427734375,0.308979885720363,0
-0.054595947265625,0.111541748046875,-0.05426025390625,0.13552289167942871,0
-0.0354156494140625,0.0838470458984375,0.0171051025390625,0.09261306528879341,0
0.0189056396484375,-0.043975830078125,0.095947265625,0.10722487874784938,0
0.0189056396484375,-0.1558380126953125,0.072509765625,0.17291782881569323,0
0.0753631591796875,-0.06634521484375,6.103515625E-5,0.10040566228802318,0
0.0263671875,0.0742645263671875,-0.0521240234375,0.09448471978323211,0
-0.052459716796875,0.1339111328125,-0.0052642822265625,0.14391638560253048,0
-0.0258331298828125,0.0071563720703125,0.0629119873046875,0.06838481123302287,0
-0.021575927734375,-0.1451873779296875,0.0863494873046875,0.17029717944076253,0
-0.009857177734375,-0.071685791015625,0.0448150634765625,0.08511407933374622,0
-0.0258331298828125,0.1392364501953125,-0.01910400390625,0.14289542549635384,0
0.0774993896484375,-0.036529541015625,-0.0382843017578125,0.09384162468636088,0
0.025299072265625,0.066802978515625,0.0522613525390625,0.08850949082032133,0
-0.0375518798828125,-0.0333251953125,0.1129913330078125,0.1236436559643552,0
-0.0503387451171875,-0.0386505126953125,0.07037353515625,0.09476437010802971,0
-0.0822906494140625,0.0731964111328125,0.0096588134765625,0.11055658398072404,0
0.0338287353515625,-0.1068267822265625,-0.0127105712890625,0.11277368203114503,0
0.0114593505859375,0.0636138916015625,-0.018035888671875,0.06710690874068809,0
-0.0045318603515625,0.0731964111328125,0.003265380859375,0.07340923016301529,0
-0.0087890625,-0.06634521484375,0.024566650390625,0.07129134213708876,0
-0.066314697265625,0.113677978515625,0.0533294677734375,0.14200124649392518,0
-0.017303466796875,-0.022674560546875,0.0448150634765625,0.053121893542990184,0
-0.0045318603515625,-0.0610198974609375,-0.01165771484375,0.06228858611148257,0
-0.0556640625,0.0167388916015625,-0.0510711669921875,0.0773753348554736,0
-0.1025238037109375,0.0263214111328125,-0.0755615234375,0.1300518774780943,0
-0.005584716796875,0.03271484375,-0.0510711669921875,0.060907422874655545,0
0.0529937744140625,-0.2794036865234375,-0.0254974365234375,0.2855256195839571,0
-0.0354156494140625,-0.013092041015625,-0.018035888671875,0.041844510291779755,0
-0.052459716796875,0.2223358154296875,0.002197265625,0.2284514492959482,0
0.0178375244140625,-0.1739501953125,0.0064544677734375,0.17498145010462543,0
0.00506591796875,-0.0269317626953125,-0.008453369140625,0.028678263834660583,0
-0.0151824951171875,0.14776611328125,-0.0137786865234375,0.14918171668988725,0
-0.0087890625,-0.043975830078125,0.0171051025390625,0.04799693514757866,0
0.0444793701171875,-0.07061767578125,0.0554656982421875,0.10020835384468152,0
0.0029296875,-0.0567626953125,0.060791015625,0.0832233995262532,0
0.0071868896484375,0.0742645263671875,0.0288238525390625,0.07998553453315871,0
0.025299072265625,0.055084228515625,0.0096588134765625,0.061380843643908445,0
0.0199737548828125,-0.03546142578125,0.0298919677734375,0.050497458747208304,0
0.003997802734375,0.02313232421875,0.0756988525390625,0.07925530345784484,0
-0.0034637451171875,0.0156707763671875,0.1097869873046875,0.11095383428988319,0
0.0210418701171875,0.047637939453125,0.0405426025390625,0.06599875903385297,0
0.0103912353515625,0.078521728515625,-0.0148468017578125,0.0805857750701007,0
0.0423431396484375,0.01141357421875,-0.0265655517578125,0.05127318687121963,0
0.0561981201171875,0.11260986328125,0.002197265625,0.1258731027231571,0
0.0189056396484375,0.0273895263671875,0.012847900390625,0.03567461155475772,0
0.0146484375,0.008209228515625,-9.918212890625E-4,0.016821173070942302,0
0.0199737548828125,-0.0077667236328125,-0.0233612060546875,0.03170203192914821,0
-0.0023956298828125,0.047637939453125,-0.034027099609375,0.058591431333441205,0
0.0029296875,-0.010955810546875,-0.009521484375,0.014807819498158493,0
0.037017822265625,-0.102569580078125,0.012847900390625,0.109799391925182,0
0.013580322265625,0.031646728515625,-0.010589599609375,0.0360288800612339,0
-0.0087890625,-0.0759429931640625,-0.0169830322265625,0.07831353148692893,0
-0.0034637451171875,-0.0312042236328125,0.0309600830078125,0.04409339908210814,0
0.0146484375,-0.07806396484375,0.034149169921875,0.08645649272709792,0
-0.0269012451171875,0.0369720458984375,-0.0148468017578125,0.0480732429653644,0
0.0199737548828125,-0.03546142578125,-0.034027099609375,0.053050043453178305,0
0.0263671875,-0.123870849609375,-0.03082275390625,0.13034284835760573,0
-0.0236968994140625,0.2234039306640625,-0.01165771484375,0.2249594665564702,0
0.006134033203125,0.0028839111328125,0.013916015625,0.015478979218095875,0
-0.017303466796875,-0.139862060546875,-9.918212890625E-4,0.14093186173849306,0
-0.0396728515625,0.1424407958984375,-0.0159149169921875,0.1487165090706096,0
-0.01837158203125,-0.055694580078125,-0.008453369140625,0.05925251662366162,0
-0.054595947265625,-0.0397186279296875,6.103515625E-5,0.06751511377268171,0
-0.073760986328125,0.07958984375,-0.0041961669921875,0.1085948164033329,0
0.0029296875,-0.0184173583984375,-0.022308349609375,0.029076530424351772,0
-0.0375518798828125,-0.0088348388671875,-0.0287017822265625,0.04808316091443411,0
-0.029022216796875,-0.0194854736328125,-0.0159149169921875,0.03840907878832898,0
0.003997802734375,0.06573486328125,0.0075225830078125,0.06628456783005404,0
-0.017303466796875,-0.055694580078125,0.00433349609375,0.05848141073592343,0
-0.0258331298828125,0.03485107421875,-0.018035888671875,0.046981286209802194,0
-0.0045318603515625,0.0838470458984375,-0.0137786865234375,0.08509240310657532,0
0.04022216796875,-0.0652923583984375,-0.00738525390625,0.07704191610153613,0
-0.01092529296875,0.0508270263671875,-0.0169830322265625,0.0546916083086999,0
-0.005584716796875,-0.0045623779296875,-0.0137786865234375,0.015551738050319506,0
-0.007720947265625,-0.0844573974609375,-0.0052642822265625,0.08497280553161839,0
-0.0141143798828125,0.0636138916015625,-0.008453369140625,0.06570694311866408,0
0.0210418701171875,-0.0546417236328125,-0.0137786865234375,0.0601525598948574,0
-0.01092529296875,-0.0770111083984375,-0.0244293212890625,0.08152830540280566,0
-0.033294677734375,0.0827789306640625,-0.0361480712890625,0.09626821897823133,0
7.9345703125E-4,-0.0088348388671875,-0.0233612060546875,0.0249885954026867,0
0.006134033203125,-0.0919189453125,-0.0127105712890625,0.0929961154736785,0
-0.017303466796875,-0.02587890625,-0.01165771484375,0.03324199252850277,0
7.9345703125E-4,0.0167388916015625,-0.01910400390625,0.025412261437332075,0
0.0029296875,7.62939453125E-4,-0.04254150390625,0.04264908791594815,0
-0.0034637451171875,0.0614776611328125,-0.045745849609375,0.0767084291657789,0
-0.0130462646484375,-0.02374267578125,-0.0254974365234375,0.037202673879673624,0
-2.593994140625E-4,-0.0034942626953125,-0.0244293212890625,0.024679321272760135,0
0.001861572265625,0.0156707763671875,-0.0404052734375,0.0433776993950773,0
-0.005584716796875,0.08917236328125,-0.041473388671875,0.09850350959632317,0
0.0093231201171875,-0.03546142578125,-0.0169830322265625,0.040408621243084614,0
-0.017303466796875,-0.1228179931640625,-0.0137786865234375,0.12479391655986047,0
-0.0226287841796875,0.11260986328125,-0.0372161865234375,0.1207397520331228,0
0.0103912353515625,0.0710601806640625,-0.0393524169921875,0.08189102375271524,0
0.003997802734375,-0.079132080078125,-0.0127105712890625,0.08024604131474714,0
-0.017303466796875,-0.022674560546875,-0.008453369140625,0.02974903542994507,0
7.9345703125E-4,0.0380401611328125,-0.029754638671875,0.04830136598031797,0
0.02423095703125,0.0295257568359375,-0.0467987060546875,0.06040718900742062,0
-0.005584716796875,0.0178070068359375,-0.0393524169921875,0.04355331534204291,0
-0.019439697265625,-0.059967041015625,-0.031890869140625,0.0706468355447947,0
-0.01092529296875,0.03485107421875,-0.0382843017578125,0.05291169210805004,0
0.0199737548828125,0.0721282958984375,-0.056396484375,0.09371235459207528,0
0.0199737548828125,-0.0610198974609375,-0.05426025390625,0.08406279750420349,0
-0.0045318603515625,-0.081268310546875,-0.043609619140625,0.09234107936871729,0
0.015716552734375,0.0731964111328125,-0.053192138671875,0.09183751003301477,0
0.0189056396484375,-0.0290679931640625,-0.0585174560546875,0.06801958615145229,0
0.001861572265625,-0.0759429931640625,-0.0372161865234375,0.08459224669769848,0
-0.033294677734375,0.0859832763671875,-0.018035888671875,0.09395186352838511,0
-0.007720947265625,0.0529632568359375,-0.0361480712890625,0.06458639685930147,0
0.003997802734375,0.01141357421875,-0.045745849609375,0.047317384327892065,0
0.013580322265625,-0.001373291015625,-0.0233612060546875,0.02705655242970535,0
-0.0013275146484375,-0.0567626953125,-0.008453369140625,0.05740405320279394,0
-2.593994140625E-4,0.0710601806640625,-0.01910400390625,0.07358382654711043,0
0.027435302734375,0.088104248046875,-0.0287017822265625,0.09663770828725762,0
0.0146484375,-0.114288330078125,-0.0041961669921875,0.11529963976814576,0
-0.0226287841796875,-0.0194854736328125,0.0192413330078125,0.03552427975432354,0
0.0146484375,0.0412445068359375,0.0064544677734375,0.0442419056954992,0
0.0263671875,-0.0642242431640625,-0.0127105712890625,0.07058002981829298,0
-0.0013275146484375,0.047637939453125,0.00433349609375,0.04785305380930214,0
0.00506591796875,0.0188751220703125,0.014984130859375,0.02462636667570302,0
-0.0023956298828125,-0.1185455322265625,0.003265380859375,0.11861469118777473,0
-0.0162506103515625,0.0944976806640625,-0.0031280517578125,0.09593580507550346,0
0.0114593505859375,0.0827789306640625,0.0075225830078125,0.08390624132236243,0
0.02423095703125,-0.1451873779296875,0.0171051025390625,0.1481860267421326,0
-0.01837158203125,0.045501708984375,0.012847900390625,0.05072463988316844,0
-0.0141143798828125,0.0849151611328125,0.002197265625,0.08610823587738085,0
0.0146484375,-0.0503692626953125,6.103515625E-5,0.052456106135998166,0
-0.007720947265625,0.0135498046875,0.0096588134765625,0.018344015686947733,0
0.0029296875,0.0028839111328125,0.0203094482421875,0.020721334420632977,0
0.0199737548828125,-0.01416015625,0.01605224609375,0.0292768767766885,0
-0.0130462646484375,0.02099609375,0.0107269287109375,0.026946390734296763,0
7.9345703125E-4,0.0614776611328125,0.0096588134765625,0.06223684656372293,0
-0.007720947265625,0.0028839111328125,0.0085906982421875,0.011905043737376417,0
-0.0013275146484375,0.0412445068359375,0.012847900390625,0.043219673572679064,0
-0.0119781494140625,0.2223358154296875,0.0192413330078125,0.2234880752570195,0
0.0444793701171875,-0.1569061279296875,0.036285400390625,0.1670765621785928,0
0.013580322265625,-0.07061767578125,0.0437469482421875,0.08417289804972028,0
0.006134033203125,0.205291748046875,0.02349853515625,0.2067232675195711,0
0.0263671875,-0.2368011474609375,0.0181732177734375,0.23895664430962704,0
-0.0471343994140625,-0.0066986083984375,0.0192413330078125,0.051349312152330996,0
-0.0386199951171875,0.2201995849609375,0.0448150634765625,0.22800822606701945,0
0.0327606201171875,-0.1750030517578125,0.083160400390625,0.1965069427479328,0
0.0029296875,0.125396728515625,0.0991363525390625,0.15987788773316433,0
0.0231781005859375,0.066802978515625,0.081024169921875,0.10753965964638239,0
0.0295562744140625,-0.116424560546875,0.0671844482421875,0.137629944929799,0
0.00506591796875,0.285186767578125,0.0895538330078125,0.29895993867559706,0
0.046600341796875,0.0753326416015625,0.1087188720703125,0.14023691343756828,0
0.04022216796875,-0.345458984375,0.1119232177734375,0.36535809743082626,0
-0.0801544189453125,0.214874267578125,0.1129913330078125,0.25566134451375067,0
-0.0247650146484375,0.1403045654296875,0.118316650390625,0.18519586061952942,0
-0.0151824951171875,-0.2144317626953125,0.1129913330078125,0.24285495742414775,0
-0.0609893798828125,0.16162109375,0.094879150390625,0.19708661949072834,0
0.0082550048828125,-0.0738067626953125,0.1012725830078125,0.12558550630646717,0
-0.005584716796875,-0.2346649169921875,0.1108551025390625,0.25959134440038173,0
-0.0322265625,0.205291748046875,0.0916748046875,0.22712886862131657,0
0.001861572265625,0.0135498046875,0.0884857177734375,0.08953650042440778,0
0.0082550048828125,-0.13665771484375,0.1225738525390625,0.18376023905676328,0
-0.0162506103515625,0.0827789306640625,0.1470794677734375,0.1695547213710123,0
0.0189056396484375,0.010345458984375,0.130035400390625,0.13180916920633448,0
0.015716552734375,-0.0194854736328125,0.10552978515625,0.10845842183837871,0
0.003997802734375,0.0178070068359375,0.1151123046875,0.11655005195033563,0
-0.00665283203125,0.172271728515625,0.1225738525390625,0.2115328767498449,0
0.0316925048828125,-0.116424560546875,0.1268310546875,0.17505773218405313,0
-0.0226287841796875,-0.1100311279296875,0.1332244873046875,0.17426323480449618,0
-0.029022216796875,0.1573486328125,0.1151123046875,0.19710840673658644,0
0.0263671875,-0.1547698974609375,0.0799560546875,0.17618717438542386,0
0.0071868896484375,0.035919189453125,0.04693603515625,0.059538482933116796,0
0.001861572265625,0.068939208984375,0.0639801025390625,0.0940719591993301,0
-0.0279693603515625,-0.1750030517578125,0.09381103515625,0.20052147904927872,0
-0.0162506103515625,0.1307220458984375,0.0906219482421875,0.15988956540025126,0
0.02423095703125,0.1445770263671875,0.0522613525390625,0.1556306679322584,0
0.0529937744140625,-0.149444580078125,0.00433349609375,0.15862156798421267,0
0.0327606201171875,0.205291748046875,-0.008453369140625,0.20806109558596472,0
-2.593994140625E-4,0.0721282958984375,0.048004150390625,0.08664269624148543,0
0.0263671875,-0.6000518798828125,0.1012725830078125,0.6091088763075381,0
-0.064178466796875,0.3704071044921875,0.073577880859375,0.3830587464220603,0
0.0870819091796875,0.203155517578125,-0.010589599609375,0.22128615602586185,0
0.07110595703125,-0.443450927734375,-0.0254974365234375,0.4498387507797373,0
-0.0695037841796875,0.3331146240234375,0.024566650390625,0.34117392787988343,0
0.006134033203125,0.0305938720703125,0.036285400390625,0.04785646929203675,0
0.062591552734375,-0.181396484375,0.002197265625,0.19190418180315005,0
0.00506591796875,0.207427978515625,-0.008453369140625,0.20766195907236443,0
0.0103912353515625,-0.102569580078125,0.01605224609375,0.10433681581392433,0
0.0423431396484375,-0.08978271484375,0.002197265625,0.09929101337093912,0
-0.009857177734375,0.11474609375,-0.029754638671875,0.11895027745350023,0
0.0231781005859375,-0.1110992431640625,-0.03082275390625,0.11760233134068633,0
0.0199737548828125,0.008209228515625,-0.0137786865234375,0.025616294018682425,0
0.0199737548828125,0.019927978515625,-0.0159149169921875,0.032393823403638326,0
0.050872802734375,-0.1110992431640625,-0.0350799560546875,0.12712862465423327,0
-0.00665283203125,0.08917236328125,-0.0361480712890625,0.09645026493026546,0
-0.0375518798828125,-0.0066986083984375,-0.022308349609375,0.04418911064394595,0
-0.0364837646484375,0.0156707763671875,-0.0169830322265625,0.04318636009762157,0
0.006134033203125,-0.0269317626953125,-0.0265655517578125,0.03832329246568829,0
7.9345703125E-4,0.02099609375,-0.0393524169921875,0.04461029309415302,0
0.0221099853515625,0.024200439453125,-0.056396484375,0.06523094489450768,0
0.0796356201171875,0.019927978515625,-0.053192138671875,0.09781799392574042,0
0.037017822265625,0.1072845458984375,-0.0382843017578125,0.11977470816080743,0
-0.01837158203125,-3.0517578125E-4,-9.918212890625E-4,0.01840086595945547,0
-0.007720947265625,-0.0844573974609375,0.0213775634765625,0.08746236466473904,0
-0.0279693603515625,-0.04718017578125,-9.918212890625E-4,0.05485652025689055,0
-0.0023956298828125,-0.02587890625,-0.0510711669921875,0.05730376016611489,0
0.048736572265625,0.0604095458984375,-0.074493408203125,0.1075817576430843,0
0.050872802734375,0.06787109375,-0.044677734375,0.095867759824432,0
0.003997802734375,-0.0514373779296875,-0.0127105712890625,0.05313515688768425,0
-0.0279693603515625,0.05401611328125,-0.0041961669921875,0.060972398918811725,0
0.0178375244140625,-0.043975830078125,-0.0159149169921875,0.050053326474377484,0
7.9345703125E-4,-0.0770111083984375,-0.0287017822265625,0.08218961426967127,0
-0.017303466796875,-0.022674560546875,-0.0244293212890625,0.03755445909381066,0
-0.00665283203125,-0.069549560546875,-0.01910400390625,0.07243179213266418,0
7.9345703125E-4,0.160552978515625,-0.04254150390625,0.1660953582701957,0
0.0199737548828125,0.0731964111328125,-0.0510711669921875,0.09145998898308645,0
-0.009857177734375,0.0050201416015625,-0.0276336669921875,0.029765505640286204,0
-0.0034637451171875,-0.02374267578125,-0.0031280517578125,0.02419704302781539,0
0.006134033203125,-0.03759765625,0.005401611328125,0.03847580439406475,0
0.025299072265625,0.0146026611328125,-0.0159149169921875,0.033265077070845445,0
0.025299072265625,-0.0088348388671875,-0.0244293212890625,0.036261400606633014,0
-0.0023956298828125,0.0636138916015625,-0.0148468017578125,0.06536737542280975,0
-0.0013275146484375,0.0050201416015625,-0.009521484375,0.010845403705944919,0
-0.0087890625,-0.0407867431640625,-0.0052642822265625,0.042053759700186225,0
-0.01092529296875,0.00927734375,0.0075225830078125,0.016187043850503142,0
0.027435302734375,-0.0418548583984375,0.03521728515625,0.061194625429498994,0
0.0316925048828125,-0.0034942626953125,0.038421630859375,0.0499284133077051,0
0.0178375244140625,-0.0631561279296875,0.0096588134765625,0.06633375045984023,0
-0.0141143798828125,0.0295257568359375,-9.918212890625E-4,0.032740949065057506,0
0.00506591796875,0.035919189453125,0.003265380859375,0.03642134549947823,0
0.0029296875,-0.116424560546875,0.0096588134765625,0.11686125981331728,0
-0.029022216796875,-0.0535736083984375,0.0171051025390625,0.06328510976134741,0
0.01251220703125,-0.05889892578125,0.0192413330078125,0.06321287589483326,0
0.0103912353515625,-0.0429229736328125,0.01605224609375,0.04698972273028424,0
-0.0354156494140625,0.0508270263671875,0.0192413330078125,0.06486820275503317,0
-0.0247650146484375,-0.067413330078125,0.0192413330078125,0.07435113932332908,0
-0.0119781494140625,0.0870513916015625,-0.006317138671875,0.08809839433357393,0
0.0103912353515625,0.00927734375,-0.029754638671875,0.032854001303967005,0
-0.0130462646484375,-0.048248291015625,-0.0276336669921875,0.05711148884979819,0
-0.0386199951171875,0.022064208984375,-0.022308349609375,0.04975937904809366,0
-0.019439697265625,-0.0312042236328125,-0.0276336669921875,0.04599157481257665,0
0.05938720703125,-0.0333251953125,-0.043609619140625,0.08086536887431596,0
0.05938720703125,-0.1068267822265625,-0.0713043212890625,0.1415030317496689,0
0.00506591796875,0.0401763916015625,-0.0500030517578125,0.06434369551154706,0
-0.0258331298828125,-0.0162811279296875,-0.03082275390625,0.04338741620067229,0
-0.0386199951171875,-0.08233642578125,-0.0574493408203125,0.10756959511856173,0
-0.042877197265625,0.0753326416015625,-0.076629638671875,0.1156959915425202,0
-0.054595947265625,-0.0216064453125,-0.068115234375,0.08992908923609835,0
-0.0343475341796875,-0.03546142578125,-0.06597900390625,0.08240445849057475,0
-0.0396728515625,0.0156707763671875,-0.0702362060546875,0.08217440613723401,0
-0.0087890625,-0.0216064453125,-0.0617218017578125,0.0659823227152672,0
-0.007720947265625,0.0018310546875,-0.067047119140625,0.0675150499740935,0
-0.0269012451171875,0.03485107421875,-0.067047119140625,0.0802096661762969,0
-0.0023956298828125,0.0380401611328125,-0.055328369140625,0.06718646689108625,0
0.013580322265625,0.0146026611328125,-0.044677734375,0.048926095428524025,0
-0.0034637451171875,-0.0333251953125,-0.0595855712890625,0.06835939202989638,0
-0.021575927734375,0.0721282958984375,-0.06597900390625,0.10010614708034907,0
0.0103912353515625,0.06573486328125,-0.0617218017578125,0.09076690385248853,0
0.001861572265625,-0.034393310546875,-0.055328369140625,0.06517356591007732,0
-0.021575927734375,-0.0450439453125,-0.0478668212890625,0.06917882802731996,0
-0.0226287841796875,0.078521728515625,-0.0372161865234375,0.08979291877358528,0
0.0189056396484375,0.0188751220703125,-0.0404052734375,0.048438410019786084,0
0.0114593505859375,-0.06634521484375,-0.067047119140625,0.09501747435904584,0
0.001861572265625,0.1094207763671875,-0.068115234375,0.12890328508637544,0
0.0093231201171875,0.0156707763671875,-0.0372161865234375,0.04144319413386473,0
-0.04180908203125,-0.0045623779296875,-0.0233612060546875,0.0481098802846012,0
-0.0396728515625,0.08172607421875,-0.018035888671875,0.09261954242217493,0
0.006134033203125,0.0273895263671875,-0.00738525390625,0.02902334393579899,0
0.0199737548828125,-0.0184173583984375,-0.00738525390625,0.02815478555689873,0
-0.0023956298828125,0.008209228515625,6.103515625E-5,0.008551853638099365,0
-0.01092529296875,0.0486907958984375,0.0075225830078125,0.05046528397607355,0
0.0071868896484375,0.0060882568359375,-9.918212890625E-4,0.009471112056595857,0
-0.0471343994140625,0.02099609375,-0.009521484375,0.052470431917285884,0
-0.1057281494140625,0.02313232421875,0.003265380859375,0.10827838525966513,0
-0.0908050537109375,0.022064208984375,0.0203094482421875,0.09562876547072284,0
-0.0013275146484375,-0.0312042236328125,0.005401611328125,0.031696108161863,0
-0.0684356689453125,0.0146026611328125,-0.034027099609375,0.07781080904333594,0
-0.0716400146484375,0.099822998046875,-0.020172119140625,0.12451440490368301,0
-0.0045318603515625,0.0273895263671875,0.0203094482421875,0.03439763946504202,0
0.03594970703125,-0.06634521484375,0.0330963134765625,0.08239802748873873,0
-0.00665283203125,0.0731964111328125,0.037353515625,0.0824454965799034,0
-0.0279693603515625,-0.0066986083984375,0.0533294677734375,0.06059033426173916,0
-0.0119781494140625,-0.09405517578125,0.061859130859375,0.11320955889546043,0
0.0082550048828125,0.1733245849609375,0.038421630859375,0.17772388296284372,0
0.0178375244140625,-0.0503692626953125,0.026702880859375,0.05973511319049836,0
-0.005584716796875,-0.1686248779296875,0.0511932373046875,0.17631303430046616,0
-2.593994140625E-4,0.090240478515625,0.0756988525390625,0.11778678842092488,0
0.015716552734375,-0.024810791015625,0.045867919921875,0.054465139847731464,0
-0.0258331298828125,-0.0642242431640625,0.0085906982421875,0.06975603275579262,0
-0.0236968994140625,0.0273895263671875,0.0288238525390625,0.04628761898880385,0
0.001861572265625,-0.0066986083984375,0.036285400390625,0.03694546098350555,0
-0.0013275146484375,-0.013092041015625,0.02777099609375,0.030730962515607956,0
-0.0226287841796875,0.0135498046875,0.0298919677734375,0.03986463116458621,0
-0.017303466796875,0.0486907958984375,0.0224456787109375,0.056338371126688484,0
-0.0013275146484375,0.0305938720703125,-0.01165771484375,0.03276659302971019,0
0.006134033203125,-0.024810791015625,-0.043609619140625,0.05054701371741386,0
0.01678466796875,-0.0088348388671875,-0.0467987060546875,0.05049651814752571,0
0.126495361328125,-0.0546417236328125,-0.020172119140625,0.13926129681186059,0
0.0860137939453125,-0.0652923583984375,-0.0127105712890625,0.10873372722661093,0
-0.0247650146484375,0.0039520263671875,0.038421630859375,0.04588187202848579,0
0.015716552734375,-0.0855255126953125,0.04693603515625,0.09881606523150568,0
0.046600341796875,0.057220458984375,0.0511932373046875,0.08981380922609933,0
0.02423095703125,0.045501708984375,0.0650482177734375,0.08299888815309267,0
0.0306243896484375,-0.1739501953125,0.0309600830078125,0.17931829363020066,0
-0.00665283203125,0.111541748046875,0.003265380859375,0.11178767572297646,0
-0.007720947265625,0.111541748046875,0.0224456787109375,0.11403939265370426,0
-0.005584716796875,-0.1569061279296875,0.038421630859375,0.16163831155231373,0
-0.0013275146484375,0.0497589111328125,0.0309600830078125,0.05861943595869537,0
0.025299072265625,0.0859832763671875,0.048004150390625,0.10167381829686148,0
0.025299072265625,-0.16009521484375,0.0980682373046875,0.18944101995453963,0
0.006134033203125,-0.0173492431640625,0.0863494873046875,0.08828848486345882,0
0.0295562744140625,0.12432861328125,0.0309600830078125,0.13149031971034453,0
0.039154052734375,-0.1771392822265625,0.0320281982421875,0.1842204403314378,0
0.013580322265625,-0.081268310546875,0.02777099609375,0.0869493627119867,0
-0.0556640625,0.127532958984375,0.01605224609375,0.14007433057476482,0
-0.0364837646484375,-0.024810791015625,0.0171051025390625,0.047320449771905575,0
0.006134033203125,0.0391082763671875,0.02777099609375,0.04835609442240382,0
-0.0162506103515625,-0.06634521484375,0.025634765625,0.07295828313570939,0
-0.0226287841796875,0.022064208984375,0.0298919677734375,0.04350196465592417,0
0.0231781005859375,0.0401763916015625,0.0448150634765625,0.06449617588122775,0
-0.0119781494140625,-0.0088348388671875,0.0320281982421875,0.03531764323727781,0
-0.03009033203125,0.0050201416015625,-0.0127105712890625,0.03304827568792278,0
-0.0364837646484375,0.0071563720703125,0.0203094482421875,0.04236451855070962,0
0.0114593505859375,-0.0770111083984375,0.0884857177734375,0.11786326731636006,0
0.02423095703125,0.0252532958984375,0.057586669921875,0.06738763080176738,0
0.0849609375,0.05401611328125,-0.00738525390625,0.10094871653543457,0
0.0924072265625,-0.1558380126953125,-0.041473388671875,0.18586184032696437,0
0.072174072265625,0.04229736328125,6.103515625E-5,0.08365504989682329,0
0.074310302734375,0.1690673828125,0.0107269287109375,0.18498883215781545,0
0.0881500244140625,-0.1153564453125,0.001129150390625,0.14518543749267784,0
-0.0045318603515625,-0.1110992431640625,0.01177978515625,0.11181387627750394,0
-0.04180908203125,0.010345458984375,0.0288238525390625,0.051825112996372685,0
0.0189056396484375,0.0305938720703125,0.02349853515625,0.042960323244369755,0
0.0327606201171875,-0.0876617431640625,0.0107269287109375,0.09419610631334113,0
-0.01092529296875,0.0039520263671875,-0.0020599365234375,0.011799316816687107,0
0.001861572265625,0.0188751220703125,-0.009521484375,0.0212224962992743,0
0.01251220703125,-0.1196136474609375,0.0085906982421875,0.12057271698021334,0
-0.0119781494140625,0.1168670654296875,0.0192413330078125,0.11904459643952765,0
0.02423095703125,0.02099609375,0.003265380859375,0.032227906285792834,0
0.02850341796875,-0.1569061279296875,-0.00738525390625,0.15964498048184447,0
0.0178375244140625,0.193572998046875,-0.009521484375,0.19462615835180305,0
0.05938720703125,0.0273895263671875,-0.0382843017578125,0.07578069856285738,0
0.0572662353515625,-0.135589599609375,-0.0467987060546875,0.15444766143248728,0
-0.0226287841796875,0.1648101806640625,-0.0361480712890625,0.1702384814954919,0
-0.042877197265625,-0.0173492431640625,0.0171051025390625,0.04931566502231245,0
-0.03009033203125,-0.182464599609375,0.073577880859375,0.19902879878077137,0
-0.0386199951171875,-0.0098876953125,0.037353515625,0.05463108703834786,0
0.003997802734375,0.127532958984375,-0.0287017822265625,0.13078390710249588,0
0.0295562744140625,0.2084808349609375,-0.041473388671875,0.21461098264342726,0
0.0444793701171875,-0.1078948974609375,-0.020172119140625,0.11843410680522541,0
-0.0023956298828125,-0.1313323974609375,0.0213775634765625,0.13308244769903935,0
-0.04180908203125,0.057220458984375,0.0522613525390625,0.08805355890530778,0
0.0210418701171875,-0.069549560546875,0.0213775634765625,0.07574233882371523,0
0.0423431396484375,-0.0301361083984375,-0.008453369140625,0.05265535067319489,0
-0.00665283203125,-0.013092041015625,0.003265380859375,0.015044082695452252,0
-0.009857177734375,-0.0279998779296875,0.0064544677734375,0.030377907617260322,0
0.01251220703125,-0.1419830322265625,0.002197265625,0.14255021831364817,0
-0.0471343994140625,0.078521728515625,-0.01165771484375,0.0923212639243207,0
-0.0247650146484375,-0.03546142578125,-0.0159149169921875,0.04608799466069927,0
-0.0343475341796875,-0.0620880126953125,-0.0127105712890625,0.07208490165889406,0
-0.0695037841796875,0.1094207763671875,-0.021240234375,0.13135764108874506,0
-0.04180908203125,-0.1153564453125,-0.010589599609375,0.12315538329816715,0
-0.0151824951171875,0.1530914306640625,0.003265380859375,0.15387708410582016,0
-0.01092529296875,0.0412445068359375,-9.918212890625E-4,0.042678508409527985,0
0.013580322265625,-0.239990234375,0.0064544677734375,0.24046080325584043,0
-0.0087890625,0.2542877197265625,0.01177978515625,0.2547121028959777,0
0.01251220703125,0.0273895263671875,0.01605224609375,0.03412354149360868,0
0.0338287353515625,-0.116424560546875,0.024566650390625,0.12370360522407668,0
-0.0013275146484375,0.11474609375,0.036285400390625,0.12035388904199804,0
-0.0013275146484375,-0.100433349609375,0.038421630859375,0.10753995409518659,0
-0.0162506103515625,-0.180328369140625,0.0298919677734375,0.18351003457872284,0
-0.0162506103515625,0.0731964111328125,0.0330963134765625,0.0819582997948403,0
0.00506591796875,0.05615234375,0.0171051025390625,0.05891802581855667,0
-0.0023956298828125,-0.1324005126953125,0.0096588134765625,0.13277397140363037,0
-0.0258331298828125,0.0593414306640625,0.0064544677734375,0.06504164932593838,0
-0.0322265625,0.008209228515625,0.0085906982421875,0.03434738504859548,0
-0.00665283203125,-0.0833892822265625,0.0075225830078125,0.08399179614347313,0
-0.0013275146484375,0.0827789306640625,0.002197265625,0.0828187275515284,0
-0.0087890625,-0.090850830078125,0.00433349609375,0.09137778796790715,0
-0.0151824951171875,-0.010955810546875,0.0075225830078125,0.020177393236785298,0
0.003997802734375,0.0412445068359375,0.0075225830078125,0.04211509261478717,0
0.0455474853515625,-0.059967041015625,-0.0041961669921875,0.0754203370944918,0
0.04022216796875,0.024200439453125,-0.008453369140625,0.04769636795038359,0
0.0093231201171875,-0.0876617431640625,-9.918212890625E-4,0.08816170082723565,0
-0.0236968994140625,-0.03759765625,0.0096588134765625,0.04547987989329331,0
-0.0236968994140625,0.078521728515625,0.02777099609375,0.08659349349091298,0
7.9345703125E-4,-0.0546417236328125,0.0192413330078125,0.057935968374945065,0
0.001861572265625,0.02313232421875,-0.009521484375,0.025084428232767856,0
0.0103912353515625,-0.0865936279296875,-0.0169830322265625,0.08885301094372199,0
0.0210418701171875,-0.02587890625,-0.031890869140625,0.046146566733283045,0
-0.01837158203125,0.1328582763671875,-0.0350799560546875,0.13863419470819502,0
0.050872802734375,-0.2144317626953125,-0.0052642822265625,0.22044667286677372,0
0.01251220703125,0.019927978515625,0.01605224609375,0.028484280878519397,0
0.01678466796875,0.1520233154296875,0.003265380859375,0.15298194738338317,0
0.050872802734375,-0.184600830078125,-0.01910400390625,0.19243303117924798,0
-0.0087890625,-0.0450439453125,-0.0276336669921875,0.05357073996483071,0
0.01251220703125,0.06787109375,-0.0137786865234375,0.07037679229636222,0
0.015716552734375,-0.01416015625,-0.0137786865234375,0.025246232534537952,0
-0.005584716796875,0.0593414306640625,-0.020172119140625,0.0629246282911755,0
0.0103912353515625,0.0369720458984375,-0.01910400390625,0.042893739814776545,0
-0.01092529296875,0.3043670654296875,-0.0159149169921875,0.30497861749244143,1
-0.0045318603515625,0.38531494140625,-0.0031280517578125,0.3853542870359009,1
0.02850341796875,-0.081268310546875,-0.0169830322265625,0.08778044496727637,1
-0.0045318603515625,0.1456298828125,-0.034027099609375,0.1496210013135017,1
0.0082550048828125,0.0050201416015625,-0.0127105712890625,0.015965761798590654,1
0.0146484375,-0.055694580078125,-0.0127105712890625,0.05897475386777315,1
0.003997802734375,-0.0066986083984375,-0.021240234375,0.022627446552439923,1
0.01251220703125,-0.0418548583984375,-0.020172119140625,0.04811755279489685,1
7.9345703125E-4,-0.0386505126953125,-0.022308349609375,0.044633554283353395,1
-0.0023956298828125,-0.010955810546875,-0.0169830322265625,0.020351712726031247,1
-0.005584716796875,-0.0301361083984375,-0.01910400390625,0.03611560682521738,1
-0.0141143798828125,0.035919189453125,-0.01165771484375,0.04031508657840161,1
-0.031158447265625,0.0859832763671875,-0.010589599609375,0.09206580402477216,1
-0.0162506103515625,0.008209228515625,-0.0169830322265625,0.024897733897455837,1
-0.0023956298828125,-0.00244140625,-0.0382843017578125,0.03843679575740164,1
0.02423095703125,0.0827789306640625,-0.0702362060546875,0.11123225827741012,1
0.0412750244140625,0.008209228515625,-0.064910888671875,0.07735917877909354,1
0.006134033203125,-0.1270751953125,-0.0244293212890625,0.12954737884531398,1
-0.0045318603515625,-0.0727386474609375,0.0064544677734375,0.07316494206196679,1
-0.0162506103515625,-0.0045623779296875,0.003265380859375,0.017191868465305987,1
-0.017303466796875,-0.048248291015625,-0.0287017822265625,0.058746062439111735,1
-0.0343475341796875,0.0156707763671875,-0.0500030517578125,0.06265486031641662,1
-0.0151824951171875,0.05615234375,-0.043609619140625,0.07270070665538234,1
-0.009857177734375,0.022064208984375,-0.022308349609375,0.03288853498238154,1
-0.0119781494140625,0.0401763916015625,-0.020172119140625,0.04652454079441599,1
0.0093231201171875,0.0028839111328125,-0.0276336669921875,0.02930626321414211,1
0.0071868896484375,-0.0312042236328125,-0.022308349609375,0.039025855757939425,1
7.9345703125E-4,0.0273895263671875,-0.0244293212890625,0.03670977345780741,1
0.0093231201171875,-0.092987060546875,-0.031890869140625,0.09874483040854429,1
0.001861572265625,-0.0205535888671875,-0.0287017822265625,0.03535120605584111,1
0.0029296875,-0.02374267578125,-0.022308349609375,0.03271024586265461,1
0.0071868896484375,-0.1036376953125,-0.021240234375,0.1060357054430739,1
-0.0130462646484375,0.047637939453125,-0.0265655517578125,0.0560830351961597,1
-0.0141143798828125,-0.01416015625,-0.0276336669921875,0.0341078480109178,1
-0.01837158203125,-0.104705810546875,-0.01165771484375,0.10694262061492237,1
-0.0130462646484375,-0.00244140625,-0.0020599365234375,0.013431635203325056,1
-0.0205078125,0.191436767578125,-0.0233612060546875,0.1939441989403802,1
0.0455474853515625,0.0018310546875,-0.0233612060546875,0.05122179352042433,1
-0.007720947265625,0.1530914306640625,-0.010589599609375,0.1536513546615678,1
0.006134033203125,0.1200714111328125,-0.01910400390625,0.12173632613156989,1
0.0189056396484375,0.04229736328125,-0.03082275390625,0.055646494134202716,1
-0.0471343994140625,0.1509552001953125,-0.020172119140625,0.15942408370367012,1
0.037017822265625,-0.1036376953125,-0.0031280517578125,0.11009484893842918,1
-2.593994140625E-4,-0.1409149169921875,0.0171051025390625,0.14194951796974498,1
0.0071868896484375,-0.0333251953125,0.0309600830078125,0.04605156637168523,1
7.9345703125E-4,0.066802978515625,0.0085906982421875,0.06735775834236038,1
-0.0130462646484375,-0.3017730712890625,-0.0350799560546875,0.3040851770364834,0
0.072174072265625,-0.8045806884765625,-0.0127105712890625,0.8079113438981516,0
0.081756591796875,0.4407196044921875,0.0075225830078125,0.4483017949340605,0
0.0231781005859375,0.0977020263671875,-0.0052642822265625,0.10055159357457912,0
0.1105194091796875,-0.30816650390625,-0.010589599609375,0.3275565196345737,0
0.0178375244140625,-0.0216064453125,0.005401611328125,0.028534070182931442,0
-0.03009033203125,0.0944976806640625,-0.0052642822265625,0.09931239801756327,0
0.027435302734375,-0.1068267822265625,-0.00738525390625,0.11054048675606597,0
-0.0226287841796875,-0.0727386474609375,-9.918212890625E-4,0.07618370178303796,0
-0.017303466796875,0.10089111328125,-0.0031280517578125,0.10241196907647138,0
7.9345703125E-4,-0.0983123779296875,-0.01165771484375,0.09900432083312492,0
0.0103912353515625,0.1190032958984375,-0.0137786865234375,0.12024813682188092,0
0.013580322265625,0.0305938720703125,-0.006317138671875,0.03406341735781329,0
0.003997802734375,-0.1089630126953125,0.0405426025390625,0.11632980350272326,0
-0.0034637451171875,-0.001373291015625,0.0671844482421875,0.0672876923668631,0
0.0306243896484375,0.0827789306640625,0.05865478515625,0.10597447062831142,0
0.0199737548828125,0.0273895263671875,0.0671844482421875,0.07525215694147715,0
-0.01837158203125,-0.1089630126953125,0.061859130859375,0.12663729795225048,0
-0.031158447265625,0.06573486328125,0.0416107177734375,0.08380556616496324,0
-0.0247650146484375,0.078521728515625,0.0543975830078125,0.09868163373551682,0
-0.0279693603515625,-0.1739501953125,0.049072265625,0.18289079479652062,0
-0.01837158203125,0.0412445068359375,0.0543975830078125,0.07069456420095178,0
0.0146484375,-0.01416015625,0.0650482177734375,0.06816419427908152,0
-0.0833587646484375,0.1541595458984375,0.04693603515625,0.18142998823655032,0
0.072174072265625,-0.137725830078125,0.0554656982421875,0.16508768778926436,0
0.0178375244140625,-0.102569580078125,0.0437469482421875,0.11292692998186839,0
0.0093231201171875,0.2095489501953125,0.0192413330078125,0.21063691982317487,0
0.0327606201171875,-0.0567626953125,0.01605224609375,0.06747545045612287,0
-0.0236968994140625,0.1403045654296875,0.026702880859375,0.14477554340579638,0
0.0434112548828125,-0.0844573974609375,0.084228515625,0.1269331788019435,0
-0.0247650146484375,-0.1760711669921875,0.118316650390625,0.21357245036798517,0
0.0114593505859375,0.0156707763671875,0.061859130859375,0.06483395729460842,0
0.01251220703125,-0.0162811279296875,-0.0052642822265625,0.021197714943281366,0
0.0029296875,0.09344482421875,-0.0244293212890625,0.09662975722190854,0
0.0082550048828125,0.2191314697265625,0.034149169921875,0.2219299707936982,0
0.0029296875,-0.0152130126953125,0.0799560546875,0.0814431673334595,0
0.0327606201171875,-0.3710174560546875,0.1097869873046875,0.3883045113170773,0
-0.0556640625,0.1296539306640625,0.059722900390625,0.1532170174024868,0
0.015716552734375,0.127532958984375,-0.0233612060546875,0.13060402599266316,0
0.050872802734375,-0.1217498779296875,-0.0137786865234375,0.1326684854675578,0
-0.0503387451171875,0.1200714111328125,0.026702880859375,0.1329066472287524,0
0.0796356201171875,-0.19525146484375,0.0863494873046875,0.22786224012078335,0
0.0210418701171875,-0.0429229736328125,0.0778350830078125,0.09134244418858502,0
-0.0716400146484375,0.327789306640625,0.049072265625,0.33909616408968796,0
0.0657806396484375,-0.4391937255859375,0.0639801025390625,0.44867769575444943,0
-0.0396728515625,0.11474609375,0.0565338134765625,0.13392786583899075,0
-0.0226287841796875,0.2670745849609375,0.0288238525390625,0.2695769097691817,0
0.0316925048828125,-0.2911224365234375,0.0181732177734375,0.29340578344219936,0
0.02850341796875,0.024200439453125,0.038421630859375,0.05361275802940665,0
-0.054595947265625,0.055084228515625,0.0661163330078125,0.10191348870190077,0
-0.019439697265625,-0.1036376953125,0.0448150634765625,0.11457339845650935,0
0.04022216796875,0.00927734375,0.012847900390625,0.043231475195850355,0
0.0263671875,-0.048248291015625,0.0298919677734375,0.06258319183260648,0
-0.0503387451171875,0.2127532958984375,0.0192413330078125,0.21947251097014134,0
0.0210418701171875,-0.0429229736328125,0.0309600830078125,0.056953215039735425,0
0.025299072265625,-0.3358612060546875,0.050140380859375,0.3405243759009533,0
-0.0812225341796875,0.3704071044921875,0.0298919677734375,0.3803840859634181,0
0.04022216796875,-0.161163330078125,0.03521728515625,0.16979899567357173,0
-0.0013275146484375,-0.2581024169921875,0.0171051025390625,0.25867200174201826,0
-0.066314697265625,0.442840576171875,-0.010589599609375,0.44790351036529796,0
0.0093231201171875,-0.262359619140625,0.0330963134765625,0.26460320536620907,0
-0.0151824951171875,0.0050201416015625,0.073577880859375,0.07529551468340955,0
-0.0609893798828125,0.2862548828125,0.034149169921875,0.29466545131528604,0
0.006134033203125,-0.2346649169921875,-0.0020599365234375,0.23475411171855518,0
-0.00665283203125,-0.0066986083984375,-0.0020599365234375,0.009663067162771622,0
-0.042877197265625,0.012481689453125,0.00433349609375,0.044866756126937885,0
0.00506591796875,0.02313232421875,-0.018035888671875,0.029766780625585645,0
0.0103912353515625,-0.147308349609375,0.00433349609375,0.1477379667694258,0
0.0082550048828125,-0.229339599609375,0.050140380859375,0.2349017983058599,0
-0.0695037841796875,0.44390869140625,0.0107269287109375,0.44944495694231057,0
0.003997802734375,-0.057830810546875,-0.031890869140625,0.06616201787850785,0
0.037017822265625,-0.389129638671875,-0.00738525390625,0.39095618275383903,0
-0.0684356689453125,0.3789215087890625,-9.918212890625E-4,0.3850531577801193,0
0.0338287353515625,-0.13665771484375,-0.018035888671875,0.14193310974535156,0
0.0178375244140625,-0.3230743408203125,0.0171051025390625,0.32401819625844097,0
-0.066314697265625,0.4247283935546875,-0.006317138671875,0.42992063640394923,0
-0.0375518798828125,0.101959228515625,-0.0244293212890625,0.1113670494395845,0
0.01678466796875,-0.24957275390625,-0.0148468017578125,0.25057675888558895,0
-0.0695037841796875,0.14776611328125,-9.918212890625E-4,0.1632990629459129,0
-0.0364837646484375,0.1658782958984375,0.002197265625,0.16985729925239884,0
0.027435302734375,-0.23785400390625,-0.009521484375,0.23962028644308178,0
-0.0269012451171875,0.05615234375,-0.0254974365234375,0.06728210732980866,0
-0.0023956298828125,0.1285858154296875,-0.006317138671875,0.1287631826775526,0
0.0306243896484375,-0.24212646484375,0.013916015625,0.24445190469690817,0
-0.0577850341796875,0.2351226806640625,0.005401611328125,0.24217960802417385,0
-0.0279693603515625,0.0178070068359375,-0.0159149169921875,0.03677851538329001,0
-0.019439697265625,-0.227203369140625,-0.0287017822265625,0.22983268932336687,0
-0.0503387451171875,0.37359619140625,-0.0052642822265625,0.37700903989240026,0
-0.0130462646484375,-0.055694580078125,0.014984130859375,0.05913218623530355,0
-0.01837158203125,-0.2208099365234375,0.0075225830078125,0.2217005465688456,0
-0.00665283203125,0.1541595458984375,-0.0169830322265625,0.15523481938423783,0
0.02423095703125,-0.0652923583984375,-0.0372161865234375,0.07896376310199246,0
0.0114593505859375,0.11474609375,-0.0265655517578125,0.11833727767247407,0
-0.0087890625,-0.0748748779296875,6.103515625E-5,0.07538898254987136,0
-0.0343475341796875,-0.0162811279296875,0.025634765625,0.04584724026085248,0
-0.0141143798828125,0.13604736328125,0.0096588134765625,0.13711817331423204,0
0.02850341796875,-0.09405517578125,0.003265380859375,0.09833353262900642,0
-0.0119781494140625,0.0838470458984375,-0.0148468017578125,0.08598971270864948,0
-0.05352783203125,0.09130859375,-0.0020599365234375,0.10586185069725942,0
0.1020050048828125,-0.4051055908203125,0.024566650390625,0.418472318136376,0
-2.593994140625E-4,0.1445770263671875,-0.009521484375,0.14489045001634102,0
-2.593994140625E-4,0.1893157958984375,-0.022308349609375,0.19062581233140743,0
0.037017822265625,-0.1622314453125,0.0064544677734375,0.16652633775985834,0
-0.0162506103515625,0.1083526611328125,0.038421630859375,0.11610599997095104,0
0.0498046875,-0.1995086669921875,0.04693603515625,0.21091990540999433,0
-0.0247650146484375,0.0486907958984375,0.014984130859375,0.05664471496416498,0
-0.0205078125,0.1882476806640625,-0.0137786865234375,0.18986208639758798,0
0.02850341796875,-0.2005767822265625,-0.0020599365234375,0.20260240310209485,0
-0.0279693603515625,0.1690673828125,0.0224456787109375,0.17282902980210996,0
-0.005584716796875,0.0391082763671875,0.02777099609375,0.0482894871183438,0
0.0189056396484375,-0.2112274169921875,0.0309600830078125,0.21431978825941078,0
-0.0364837646484375,0.148834228515625,0.012847900390625,0.15377828587031162,0
-0.0013275146484375,-0.0066986083984375,-0.00738525390625,0.010058609490243392,0
-0.0119781494140625,0.0849151611328125,0.002197265625,0.08578396487586665,0
0.0210418701171875,0.0167388916015625,0.0288238525390625,0.03941782928157089,0
0.0434112548828125,-0.2357330322265625,0.036285400390625,0.24242778267916826,0
0.02850341796875,0.1424407958984375,0.02349853515625,0.14715300311774512,0
0.0561981201171875,-0.0887298583984375,0.013916015625,0.10594749627522043,0
-0.0205078125,-0.0184173583984375,0.013916015625,0.03087758013165696,0
0.013580322265625,0.1190032958984375,0.03521728515625,0.12484577189999639,0
0.0082550048828125,-0.26556396484375,0.0288238525390625,0.26725115342003924,0
-0.0822906494140625,0.3043670654296875,0.013916015625,0.31560214985031876,0
0.0029296875,-0.0066986083984375,0.013916015625,0.0157197300930556,0
-0.0364837646484375,-0.21868896484375,0.0298919677734375,0.22371736223351493,0
-0.052459716796875,0.2244720458984375,0.0448150634765625,0.2348363498069387,0
-0.0162506103515625,-0.07806396484375,0.0298919677734375,0.08515629560574352,0
-0.0162506103515625,-0.0493011474609375,0.0107269287109375,0.053007098367416315,0
-0.0226287841796875,-0.013092041015625,0.0096588134765625,0.02787034426017569,0
-0.0684356689453125,0.0731964111328125,0.02349853515625,0.10292393570596513,0
-0.03009033203125,0.0859832763671875,0.0203094482421875,0.09333287515387655,0
0.0082550048828125,-0.0567626953125,0.001129150390625,0.057370930490620566,0
0.01678466796875,0.101959228515625,-0.0020599365234375,0.10335208124079172,0
0.0295562744140625,-0.0077667236328125,0.024566650390625,0.039209892433454206,0
0.0327606201171875,-0.24212646484375,0.0448150634765625,0.2484086816570683,0
-0.0279693603515625,0.1520233154296875,0.0213775634765625,0.1560460629843133,0
-0.01092529296875,0.0977020263671875,0.005401611328125,0.09845925750099759,0
0.0189056396484375,-0.16009521484375,0.013916015625,0.16180715842402735,0
-0.0343475341796875,0.0486907958984375,0.01177978515625,0.06073969087652247,0
-0.0439453125,0.205291748046875,0.005401611328125,0.21001207039549985,0
0.025299072265625,-0.2240142822265625,0.0224456787109375,0.22655297436091618,0
-0.019439697265625,0.0305938720703125,0.024566650390625,0.04378820788122061,0
0.003997802734375,0.2510986328125,0.024566650390625,0.2523292019137398,0
0.058319091796875,-0.356109619140625,0.0224456787109375,0.3615508066721577,0
-0.019439697265625,0.1190032958984375,0.013916015625,0.12138097773269692,0
0.0029296875,0.2084808349609375,-0.010589599609375,0.2087701636602898,0
0.062591552734375,-0.2346649169921875,-0.006317138671875,0.24295108969018844,0
-0.0396728515625,0.1339111328125,0.014984130859375,0.140465835062616,0
-0.0119781494140625,-0.0631561279296875,0.0064544677734375,0.0646052065447902,0
-0.0247650146484375,-0.036529541015625,0.001129150390625,0.044147347575524874,0
-0.0492706298828125,0.146697998046875,0.0085906982421875,0.15498934704133172,0
0.062591552734375,-0.1068267822265625,0.0192413330078125,0.12529921296839414,0
0.0103912353515625,0.0028839111328125,0.0075225830078125,0.013148534924581958,0
0.013580322265625,0.076385498046875,0.005401611328125,0.07777111848011126,0
0.0306243896484375,-0.08233642578125,0.02349853515625,0.09093580926268888,0
7.9345703125E-4,0.0518951416015625,0.026702880859375,0.0583676206650283,0
-2.593994140625E-4,0.125396728515625,0.002197265625,0.12541624610354188,0
0.04022216796875,-0.1313323974609375,-0.0169830322265625,0.1383995838236245,0
-0.0045318603515625,0.088104248046875,-0.010589599609375,0.08885401455217551,0
0.003997802734375,0.0721282958984375,0.005401611328125,0.07244067159307443,0
0.0114593505859375,-0.046112060546875,0.02349853515625,0.053007735267785294,0
-0.0119781494140625,-0.0833892822265625,0.050140380859375,0.09803726968031126,0
-0.054595947265625,-0.0972442626953125,0.0405426025390625,0.11866282781741824,0
-0.0567169189453125,-0.02587890625,0.0064544677734375,0.06267524900296592,0
-0.009857177734375,0.0146026611328125,-0.018035888671875,0.02521299159622039,0
0.0093231201171875,0.068939208984375,-0.008453369140625,0.0700784885249283,0
-0.0141143798828125,0.0252532958984375,0.0224456787109375,0.03661629645396999,0
-0.0279693603515625,-0.0216064453125,0.0298919677734375,0.04628880355859109,0
-0.0354156494140625,-0.010955810546875,0.0171051025390625,0.04082747287098046,0
-0.0151824951171875,0.066802978515625,0.0171051025390625,0.07060970633995244,0
-0.007720947265625,0.1051483154296875,0.0320281982421875,0.11018886852591092,0
-0.0130462646484375,-0.04718017578125,0.0448150634765625,0.06636688875060398,0
-0.0141143798828125,-0.1206817626953125,0.025634765625,0.12417908348579781,0
0.0071868896484375,-0.0205535888671875,-9.918212890625E-4,0.02179644713272394,0
0.0572662353515625,0.078521728515625,-0.0159149169921875,0.0984802931722397,0
0.027435302734375,0.0369720458984375,-9.918212890625E-4,0.04605010014660567,0
-0.0226287841796875,0.0252532958984375,0.038421630859375,0.05124463430525183,0
0.00506591796875,0.0188751220703125,0.0511932373046875,0.0547967271264384,0
-0.0045318603515625,-0.1302642822265625,0.0426788330078125,0.13715248364195357,0
-0.017303466796875,0.0604095458984375,0.0309600830078125,0.07005176613545602,0
-0.0141143798828125,-0.0034942626953125,0.01605224609375,0.02165872101289702,0
0.0071868896484375,-0.1302642822265625,0.0064544677734375,0.1306219535953229,0
0.01251220703125,0.0305938720703125,0.005401611328125,0.033492054848689674,0
-2.593994140625E-4,-0.1089630126953125,0.005401611328125,0.10909712566623823,0
0.001861572265625,0.0380401611328125,0.012847900390625,0.040194375909546165,0
0.01251220703125,-0.0205535888671875,0.026702880859375,0.035945085704505025,0
0.0146484375,-0.043975830078125,0.025634765625,0.05296783515398955,0
-0.0013275146484375,0.1094207763671875,6.103515625E-5,0.1094288459284396,0
0.0210418701171875,0.0263214111328125,-0.0159149169921875,0.037267433033673684,0
0.0114593505859375,0.0412445068359375,-0.006317138671875,0.043270455289848984,0
0.0093231201171875,0.0380401611328125,0.0181732177734375,0.04317684879620825,0
0.0189056396484375,-0.0173492431640625,0.0405426025390625,0.04798043423649622,0
0.03594970703125,0.0412445068359375,0.0171051025390625,0.057324299495451696,0
0.0434112548828125,0.043365478515625,-0.0031280517578125,0.06144010485984867,0
0.0093231201171875,-0.059967041015625,-0.00738525390625,0.06113516624782285,0
0.00506591796875,-0.022674560546875,-0.0052642822265625,0.023822508017018407,0
-0.0087890625,-0.0631561279296875,6.103515625E-5,0.06376478526577392,0
-0.0396728515625,-0.0450439453125,0.0096588134765625,0.06079625677778752,0
7.9345703125E-4,-0.0429229736328125,0.0107269287109375,0.04425017784272841,0
-0.0045318603515625,-0.0184173583984375,-0.01910400390625,0.02692024914209703,0
-0.0119781494140625,0.0636138916015625,-0.029754638671875,0.07124283676675704,0
-0.009857177734375,-0.013092041015625,-0.022308349609375,0.02768082284065933,0
-0.0119781494140625,-0.0865936279296875,-0.0159149169921875,0.08885503387135125,0
0.015716552734375,0.01141357421875,-0.0052642822265625,0.020124422318670586,0
0.03594970703125,-0.03759765625,0.002197265625,0.052065277943680245,0
0.0316925048828125,0.0508270263671875,-0.0052642822265625,0.06012914553225224,0
0.04022216796875,0.0391082763671875,-0.0169830322265625,0.058614874051959844,0
0.034881591796875,-0.0525054931640625,-0.009521484375,0.06375116409438027,0
0.039154052734375,0.0178070068359375,0.003265380859375,0.04313689893974897,0
0.01678466796875,-0.0993804931640625,0.0096588134765625,0.10124969223720377,0
0.013580322265625,-0.0759429931640625,-0.018035888671875,0.07922787794545139,0
0.006134033203125,0.043365478515625,-0.041473388671875,0.06031776735054592,0
0.0114593505859375,0.0028839111328125,-0.041473388671875,0.043123956534643196,0
-0.0162506103515625,-0.0535736083984375,-0.022308349609375,0.060265050534464376,0
-0.0130462646484375,0.05401611328125,-0.00738525390625,0.05605789409663624,0
-0.0322265625,-0.0865936279296875,6.103515625E-5,0.09239594933698046,0
-0.029022216796875,0.008209228515625,-0.0169830322265625,0.03461363725809561,0
-0.0364837646484375,0.08917236328125,-0.0265655517578125,0.099942503452149,0
-0.0013275146484375,-0.0833892822265625,-0.009521484375,0.08394160678773356,0
0.0199737548828125,-0.0503692626953125,-0.0041961669921875,0.05434722923953345,0
-0.0386199951171875,0.05615234375,-0.022308349609375,0.07170949862998521,0
0.0178375244140625,0.0529632568359375,-0.0467987060546875,0.07289309116977274,0
0.0082550048828125,0.11260986328125,-0.0361480712890625,0.11855719915617195,0
-0.0141143798828125,0.05828857421875,0.003265380859375,0.06006193733212276,0
0.0146484375,-0.184600830078125,0.0330963134765625,0.18811541444672492,0
-0.0343475341796875,7.62939453125E-4,0.01177978515625,0.03631939590854098,0
-0.040740966796875,0.2042236328125,-0.0489349365234375,0.21391995369116867,0
0.0881500244140625,-0.116424560546875,-0.076629638671875,0.16491575614754006,0
0.0316925048828125,-0.102569580078125,-0.0148468017578125,0.10837601739123733,0
-0.042877197265625,0.07745361328125,0.01605224609375,0.08997327859054075,0
-0.0567169189453125,-0.0546417236328125,0.024566650390625,0.08249877070374445,0
-0.0844268798828125,0.0050201416015625,0.0064544677734375,0.08482193126005168,0
-0.031158447265625,0.078521728515625,-0.0287017822265625,0.08922053008174334,0
0.0199737548828125,0.0955657958984375,-0.043609619140625,0.10692787808336447,0
-0.01092529296875,0.1317901611328125,-0.0372161865234375,0.13737923109849243,0
-0.0354156494140625,-0.1078948974609375,-0.009521484375,0.11395716645402067,0
-0.0364837646484375,-0.0684814453125,-0.006317138671875,0.0778503672182168,0
-0.0588531494140625,0.1978302001953125,-0.021240234375,0.2074888644278924,0
-2.593994140625E-4,-0.0844573974609375,-0.04254150390625,0.09456690133728753,0
0.0114593505859375,-0.0951080322265625,-0.0500030517578125,0.10806090733912405,0
-0.0269012451171875,0.1648101806640625,-0.0254974365234375,0.16892658733498006,0
0.015716552734375,-0.135589599609375,-0.01165771484375,0.1369943497647301,0
-0.0226287841796875,-0.0034942626953125,-0.0169830322265625,0.028507808208334578,0
-0.0236968994140625,0.104095458984375,-0.0169830322265625,0.10810102222743481,0
0.001861572265625,-0.0546417236328125,-0.0233612060546875,0.05945527193777161,0
7.9345703125E-4,0.035919189453125,-0.0350799560546875,0.05021375371179427,0
0.0221099853515625,0.010345458984375,-0.0287017822265625,0.037678538676874304,0
-0.0247650146484375,0.0284576416015625,-0.020172119140625,0.04277917374942945,0
0.0071868896484375,0.0071563720703125,-0.0137786865234375,0.017108981452404613,0
0.0231781005859375,-0.057830810546875,-0.018035888671875,0.06486077609360417,0
-0.0045318603515625,0.05401611328125,-0.031890869140625,0.06289122185808894,0
0.01251220703125,0.0497589111328125,-0.041473388671875,0.06597383215976167,0
0.0263671875,-0.059967041015625,-0.0244293212890625,0.06991470749044187,0
-2.593994140625E-4,0.008209228515625,-0.006317138671875,0.010361706513768148,0
-0.01837158203125,0.0859832763671875,-0.01165771484375,0.08869352375763002,0
-0.0034637451171875,-0.0290679931640625,-0.0350799560546875,0.045689704240907826,0
0.0210418701171875,-0.0173492431640625,-0.0265655517578125,0.038072103653349294,0
0.0189056396484375,-0.043975830078125,-0.01165771484375,0.049266613004700095,0
0.0455474853515625,0.1339111328125,-0.0287017822265625,0.14432795022433748,0
0.1105194091796875,0.07000732421875,-0.0404052734375,0.13692388897214217,0
0.0146484375,-0.275146484375,-0.0500030517578125,0.2800365507754443,0
-0.0386199951171875,0.1786651611328125,-0.0265655517578125,0.18471186308860202,0
0.0103912353515625,0.088104248046875,-0.00738525390625,0.08902178537468579,0
0.02423095703125,-0.298583984375,-0.01165771484375,0.29979232364968705,0
-0.042877197265625,0.2308502197265625,-0.0287017822265625,0.23654612720596066,0
0.0178375244140625,0.024200439453125,-0.032958984375,0.0446109089570941,0
0.034881591796875,-0.283660888671875,-0.03082275390625,0.28745480926011124,0
-0.0045318603515625,0.217010498046875,-0.05426025390625,0.22373705364728821,0
0.04022216796875,-0.0290679931640625,-0.055328369140625,0.07432361303417365,0
0.015716552734375,-0.215484619140625,-0.0510711669921875,0.222011024982942,0
-0.0205078125,0.275604248046875,-0.0510711669921875,0.2810454340724333,0
0.01251220703125,-0.0983123779296875,-0.04254150390625,0.10785016705405723,0
0.006134033203125,-0.19525146484375,-0.0489349365234375,0.20138368578293536,0
-0.0599212646484375,0.395965576171875,-0.053192138671875,0.40399096411514085,0
0.0434112548828125,-0.12493896484375,-0.0393524169921875,0.13799599526745449,0
0.0093231201171875,-0.193115234375,-0.0169830322265625,0.19408461479478262,0
-0.054595947265625,0.423675537109375,-0.0244293212890625,0.4278766994607121,0
0.0295562744140625,-0.0738067626953125,-0.0393524169921875,0.0887109029371731,0
0.046600341796875,-0.22613525390625,-0.031890869140625,0.23307889747760135,0
-0.0396728515625,0.2766571044921875,-0.0233612060546875,0.2804618237219299,0
0.00506591796875,0.024200439453125,-0.0137786865234375,0.028305070162457313,0
0.01678466796875,-0.19525146484375,-0.008453369140625,0.1961538147788082,0
-0.0279693603515625,0.1392364501953125,-0.01910400390625,0.14329702420747373,0
-0.0205078125,0.0486907958984375,-0.009521484375,0.05368447302024882,0
-0.0045318603515625,-0.0983123779296875,0.003265380859375,0.09847093035303639,0
-0.01092529296875,0.07000732421875,0.001129150390625,0.07086368923028809,0
-0.03009033203125,0.0295257568359375,-0.006317138671875,0.04262751035992459,0
-0.0087890625,-0.0088348388671875,-0.006317138671875,0.013971694186381686,0
0.0146484375,-0.0429229736328125,0.0181732177734375,0.04885922871797413,0
-0.009857177734375,-0.0450439453125,0.0213775634765625,0.050824415219429805,0
7.9345703125E-4,0.115814208984375,-0.0031280517578125,0.11585916141823434,0
0.027435302734375,-0.0802001953125,-0.01165771484375,0.08556091093290288,0
-0.029022216796875,0.0039520263671875,-0.0148468017578125,0.03283801307399007,0
0.0071868896484375,0.06787109375,0.0064544677734375,0.06855506475730623,0
-0.0279693603515625,-0.112152099609375,0.0107269287109375,0.11608378683018686,0
-0.01837158203125,0.092376708984375,-0.0020599365234375,0.09420835805593604,0
0.006134033203125,-3.0517578125E-4,-0.00738525390625,0.00960528348640905,0
-0.007720947265625,-0.01202392578125,0.0096588134765625,0.01724762289843432,0
-0.0034637451171875,0.04656982421875,0.0085906982421875,0.04748206139470398,0
0.006134033203125,0.0167388916015625,-9.918212890625E-4,0.017854987114398518,0
0.00506591796875,-0.0088348388671875,-0.00738525390625,0.012580138231953253,0
0.001861572265625,0.0273895263671875,-0.0041961669921875,0.027771557812721406,0
0.001861572265625,-0.01416015625,0.001129150390625,0.0143265647288248,0
-0.017303466796875,0.0710601806640625,-0.0020599365234375,0.07316558328668166,0
-0.005584716796875,0.043365478515625,0.005401611328125,0.04405600065292536,0
-0.0386199951171875,0.035919189453125,0.0203094482421875,0.05651695216236599,0
-0.005584716796875,-0.0152130126953125,0.0320281982421875,0.03589471130417265,0
-0.031158447265625,0.0646820068359375,0.0181732177734375,0.07405995333896576,0
-0.040740966796875,0.1573486328125,0.01605224609375,0.16332817646738523,0
0.04766845703125,-0.2101593017578125,0.0650482177734375,0.22510105407699,0
-0.0023956298828125,-0.0418548583984375,0.0799560546875,0.09028033504190804,0
-0.019439697265625,0.2308502197265625,0.048004150390625,0.2365885124690273,0
0.0178375244140625,-0.11322021484375,0.034149169921875,0.1195958198802963,0
0.0231781005859375,-0.10150146484375,0.057586669921875,0.11897897404537423,0
-0.0247650146484375,0.158416748046875,0.0874176025390625,0.18262258689976413,0
0.0178375244140625,-0.1196136474609375,0.083160400390625,0.14676939098211444,0
-0.0130462646484375,-0.010955810546875,0.061859130859375,0.06416219195673857,0
-0.0247650146484375,0.101959228515625,0.0533294677734375,0.11769886304904084,0
7.9345703125E-4,-0.0855255126953125,0.0650482177734375,0.10745470455665052,0
0.001861572265625,-0.0397186279296875,0.0863494873046875,0.095064550773143,0
-0.0013275146484375,0.008209228515625,0.08209228515625,0.08251240518939337,0
-0.0247650146484375,0.0753326416015625,0.059722900390625,0.09927304605115783,0
0.0146484375,-0.02374267578125,0.045867919921875,0.05368572857291311,0
0.0263671875,-0.0961761474609375,0.05865478515625,0.11569556490554854,0
-0.0247650146484375,0.08917236328125,0.072509765625,0.11756990445982755,0
-0.01092529296875,-0.0045623779296875,0.0639801025390625,0.06506635720351393,0
-0.00665283203125,-0.02587890625,0.0554656982421875,0.06156640028640392,0
-0.0226287841796875,0.0391082763671875,0.0543975830078125,0.07071503511245004,0
0.0210418701171875,-0.079132080078125,0.060791015625,0.10198134131417555,0
-0.019439697265625,0.00927734375,0.060791015625,0.06449432934416642,0
0.0082550048828125,0.0305938720703125,0.05865478515625,0.06666718784826424,0
0.0263671875,-0.1654205322265625,0.0565338134765625,0.1767915527534676,0
-0.0364837646484375,0.1786651611328125,0.0522613525390625,0.18969331526110403,0
0.046600341796875,-0.057830810546875,0.0650482177734375,0.09872823881542035,0
0.0103912353515625,-0.1877899169921875,0.0682373046875,0.20007338765332822,0
-0.0375518798828125,0.3043670654296875,0.04693603515625,0.31024578256150653,0
0.037017822265625,-0.194183349609375,0.0533294677734375,0.20474746534158675,0
7.9345703125E-4,-0.1984405517578125,0.0661163330078125,0.20916656436057235,0
-0.0236968994140625,0.3246002197265625,0.050140380859375,0.32930366454246457,0
0.0199737548828125,-0.147308349609375,0.036285400390625,0.15302068824268336,0
0.0178375244140625,-0.146240234375,0.0543975830078125,0.1570461093576312,0
-0.009857177734375,0.1999664306640625,0.045867919921875,0.20539621083012197,0
-0.021575927734375,0.04656982421875,0.026702880859375,0.057855967985629815,0
0.03594970703125,-0.1345367431640625,0.025634765625,0.1415968146021453,0
0.013580322265625,-0.0173492431640625,0.0426788330078125,0.04803024232827423,0
-0.054595947265625,0.1754608154296875,0.0416107177734375,0.1884108994795748,0
0.0561981201171875,-0.1313323974609375,0.03521728515625,0.1471281227410998,0
0.0114593505859375,-0.1291961669921875,0.038421630859375,0.13527449131014577,0
0.015716552734375,0.207427978515625,0.0224456787109375,0.2092299806283163,0
0.0498046875,-0.12493896484375,0.0064544677734375,0.1346547882083619,0
-0.0961456298828125,0.0295257568359375,-0.0052642822265625,0.10071477115924247,0
-0.075897216796875,0.39703369140625,-0.044677734375,0.4066844471799583,0
0.0561981201171875,-0.2229461669921875,0.0533294677734375,0.23602384246980707,0
-0.033294677734375,-0.4604949951171875,0.0852813720703125,0.46950728270774406,0
0.0093231201171875,0.5472412109375,0.0298919677734375,0.5481362907657448,0
0.01251220703125,-0.1291961669921875,-0.01910400390625,0.13119896285991012,0
0.03594970703125,-0.298583984375,0.0075225830078125,0.30083445018147836,0
-0.03009033203125,0.3341827392578125,0.0298919677734375,0.3368635644247893,0
0.013580322265625,-0.079132080078125,0.0405426025390625,0.08994450439559615,0
0.0519256591796875,-0.194183349609375,0.0298919677734375,0.20321657679463564,0
-0.0471343994140625,0.29583740234375,-0.018035888671875,0.30011116859225095,0
0.0316925048828125,-0.0631561279296875,-0.0350799560546875,0.07889052337015488,0
0.015716552734375,-0.2090911865234375,0.014984130859375,0.21021574272456903,0
-0.0812225341796875,0.1903839111328125,0.025634765625,0.20856719513251798,0
0.0380859375,-0.0205535888671875,-0.01910400390625,0.04730699330781122,0
0.039154052734375,-0.0503692626953125,-0.0233612060546875,0.06794003546014077,0
-0.0247650146484375,0.18292236328125,0.0064544677734375,0.1847039715143485,0
0.04022216796875,-0.19525146484375,0.005401611328125,0.19942450883649335,0
-0.0258331298828125,0.04443359375,-0.018035888671875,0.05447006639675197,0
-0.0162506103515625,0.293701171875,-0.034027099609375,0.2961119791656071,0
0.0551300048828125,-0.23785400390625,-0.008453369140625,0.24430575937222804,0
0.0146484375,0.0295257568359375,-0.0031280517578125,0.03310788041729446,0
-0.019439697265625,0.306488037109375,-0.0500030517578125,0.311148073923062,0
0.0189056396484375,-0.1324005126953125,-0.053192138671875,0.14393304898106674,0
-0.0236968994140625,-0.0162811279296875,-0.0148468017578125,0.03235808540286075,0
-0.03009033203125,0.27239990234375,-0.0244293212890625,0.2751434655180451,0
0.05938720703125,-0.1526336669921875,-0.053192138671875,0.17220127837778243,0
0.04022216796875,-0.100433349609375,-0.0851593017578125,0.1376836489411268,0
-0.00665283203125,0.1317901611328125,-0.068115234375,0.14850115117200233,0
0.0327606201171875,-0.0983123779296875,0.01177978515625,0.10429451195043671,0
0.0189056396484375,-0.123870849609375,0.0171051025390625,0.12646736783193052,0
0.0849609375,7.62939453125E-4,-0.0244293212890625,0.08840664407233363,0
-2.593994140625E-4,-0.02587890625,-0.0521240234375,0.05819535115509962,0
-0.03009033203125,0.1200714111328125,-0.0489349365234375,0.1331059723142753,0
-0.0162506103515625,0.0742645263671875,-0.029754638671875,0.08163725090811692,0
-0.0162506103515625,0.0305938720703125,-0.0137786865234375,0.03728162479512012,0
0.04022216796875,0.068939208984375,-0.0500030517578125,0.094184619320737,0
0.03594970703125,0.0401763916015625,-0.067047119140625,0.0860339471535043,0
-0.0141143798828125,0.1296539306640625,-0.04254150390625,0.13718285975559538,0
0.0498046875,0.0944976806640625,-0.0404052734375,0.11420553694729048,0
0.0316925048828125,-0.1675567626953125,-0.04254150390625,0.1757539847209327,0
-0.0087890625,-0.0503692626953125,-0.0585174560546875,0.077708448107079,0
0.0263671875,0.1424407958984375,-0.0723724365234375,0.1619332531667893,0
0.0327606201171875,-0.1675567626953125,-0.043609619140625,0.17621102643417721,0
0.0178375244140625,-0.0802001953125,-0.0041961669921875,0.08226698257996184,0
0.0093231201171875,0.127532958984375,-0.0244293212890625,0.13018589760290483,0
0.0679168701171875,-0.04718017578125,-0.068115234375,0.10713708688976822,0
0.0231781005859375,-0.0194854736328125,-0.045745849609375,0.05485973738499322,0
0.037017822265625,0.031646728515625,-0.01910400390625,0.05231441059862081,0
0.05938720703125,-0.116424560546875,-0.0052642822265625,0.1308022603966247,0
0.01678466796875,0.033782958984375,-0.0244293212890625,0.04494224221381692,0
0.0114593505859375,0.0987701416015625,-0.01910400390625,0.10125127432824808,0
0.006134033203125,-0.151580810546875,0.0085906982421875,0.15194791405502406,0
0.013580322265625,0.0167388916015625,0.013916015625,0.025656795118688028,0
0.039154052734375,0.14990234375,-0.0276336669921875,0.15737652956748188,0
0.02850341796875,-0.07061767578125,-0.031890869140625,0.08256105924218433,0
0.048736572265625,-0.0620880126953125,-0.0031280517578125,0.07899341431065839,0
0.0199737548828125,0.1733245849609375,-0.0159149169921875,0.17519602512291235,0
0.01251220703125,0.0018310546875,-0.0031280517578125,0.013026618665679576,0
-0.0247650146484375,-0.1984405517578125,0.0309600830078125,0.20236226247087927,0
-0.021575927734375,0.1104888916015625,0.0085906982421875,0.1129031262686252,0
0.0423431396484375,-0.046112060546875,-0.0372161865234375,0.07283068132671174,0
-0.0045318603515625,-0.114288330078125,-0.044677734375,0.12279438138276348,0
0.0146484375,0.0625457763671875,0.001129150390625,0.06424815828621304,0
-0.0141143798828125,-0.03546142578125,0.038421630859375,0.054156718473422315,0
-0.019439697265625,-0.0077667236328125,0.0309600830078125,0.03737312624892754,0
0.0114593505859375,0.0039520263671875,0.0096588134765625,0.015499287275013542,0
0.0071868896484375,0.0529632568359375,0.012847900390625,0.0549711424470669,0
0.0561981201171875,-0.123870849609375,0.0064544677734375,0.13617590183983572,0
0.0764312744140625,-0.1675567626953125,-0.0254974365234375,0.18592237009773116,0
-0.0258331298828125,0.02099609375,-0.044677734375,0.055716124247690686,0
-0.0460662841796875,0.076385498046875,-0.0254974365234375,0.09277373615016049,0
-0.01837158203125,-0.193115234375,0.05865478515625,0.20266078208614507,0
-0.0343475341796875,-0.0620880126953125,0.092742919921875,0.11677295757286191,0
-0.040740966796875,0.055084228515625,0.0203094482421875,0.07146028473640277,0
-0.0364837646484375,0.0050201416015625,-0.045745849609375,0.05872775886329965,0
-0.0119781494140625,-0.0056304931640625,-0.03082275390625,0.03354430913018496,0
-0.0940093994140625,0.1520233154296875,-0.0350799560546875,0.18215229597571864,0
-0.0087890625,0.125396728515625,0.00433349609375,0.12577903772268578,0
-0.0279693603515625,-0.1270751953125,0.1033935546875,0.16619451715716327,0
-0.007720947265625,0.134979248046875,0.137481689453125,0.19282174505191024,0
0.119049072265625,0.0497589111328125,0.0543975830078125,0.14002759685690885,0
0.0870819091796875,-0.03546142578125,-0.0127105712890625,0.09488061049188493,0
0.0338287353515625,-0.02587890625,0.00433349609375,0.04281215145933325,0
7.9345703125E-4,-0.04718017578125,0.0107269287109375,0.04839075903909366,0
-0.04180908203125,-0.0525054931640625,0.001129150390625,0.06712749908421924,0
-0.0087890625,-0.0162811279296875,0.0192413330078125,0.02669366295976053,0
-0.0577850341796875,-0.0535736083984375,0.0554656982421875,0.09636226114755811,0
-0.0247650146484375,-0.010955810546875,0.049072265625,0.05604839862874673,0
-0.0034637451171875,0.010345458984375,0.034149169921875,0.03584957263604851,0
-0.021575927734375,-0.03759765625,0.049072265625,0.06547664978190845,0
-0.0130462646484375,0.0604095458984375,0.0629119873046875,0.08818977493767437,0
0.0093231201171875,-0.0077667236328125,0.0416107177734375,0.04334390843392716,0
0.0178375244140625,-0.001373291015625,0.0181732177734375,0.025501549946555343,0
0.0263671875,-0.0386505126953125,0.025634765625,0.0533500882559659,0
-0.0023956298828125,-0.010955810546875,0.0181732177734375,0.021354968309862377,0
0.0114593505859375,0.0987701416015625,0.003265380859375,0.09948628196892728,0
0.001861572265625,-0.0983123779296875,0.034149169921875,0.1040910894930154,0
-0.0279693603515625,-0.0279998779296875,0.0511932373046875,0.0647072316537109,0
-0.029022216796875,0.090240478515625,0.00433349609375,0.09489158139122952,0
0.006134033203125,-0.0535736083984375,-0.0127105712890625,0.055401412460879665,0
-0.0119781494140625,0.0146026611328125,0.0426788330078125,0.046671153429651856,0
-0.0205078125,-0.0450439453125,0.050140380859375,0.07045271588500919,0
-0.0162506103515625,-0.048248291015625,0.0437469482421875,0.06712507283594843,0
-0.05352783203125,0.099822998046875,0.03521728515625,0.11861752364136063,0
0.0029296875,-0.02374267578125,0.04693603515625,0.05268101288215658,0
0.006134033203125,-0.06634521484375,0.038421630859375,0.07691251922733036,0
0.01251220703125,0.14990234375,6.103515625E-5,0.15042364080099352,0
0.0295562744140625,-0.01202392578125,-0.0276336669921875,0.042210990273476016,0
0.0199737548828125,-0.0631561279296875,-0.010589599609375,0.06708045169105978,0
-0.0141143798828125,-0.0333251953125,0.014984130859375,0.039170250697480716,0
-0.0023956298828125,-0.1217498779296875,0.014984130859375,0.12269187420542611,0
-0.045013427734375,0.146697998046875,-0.009521484375,0.15374384531441287,0
0.0199737548828125,-0.0397186279296875,0.0320281982421875,0.0547934829279586,0
0.00506591796875,-0.2016448974609375,0.083160400390625,0.21817878079691244,0
-0.0620574951171875,0.1456298828125,0.04693603515625,0.165112649013911,0
-0.0119781494140625,0.047637939453125,-0.032958984375,0.05915356278160009,0
0.006134033203125,-0.104705810546875,-0.0627899169921875,0.12224363705936156,0
-0.01837158203125,0.148834228515625,-0.043609619140625,0.15617599522898068,0
-0.009857177734375,0.04656982421875,-0.01165771484375,0.04900831353995484,0
0.006134033203125,-0.123870849609375,-0.0137786865234375,0.12478568006224351,0
-0.009857177734375,0.1200714111328125,-0.0265655517578125,0.12336951108158353,0
0.02423095703125,7.62939453125E-4,-0.053192138671875,0.05845617992776639,0
0.0306243896484375,0.0188751220703125,-0.0574493408203125,0.06778311172553933,0
-0.0034637451171875,-0.08233642578125,-0.034027099609375,0.0891578827053136,0
0.0071868896484375,-0.03546142578125,-0.0287017822265625,0.04618394097777862,0
-0.0013275146484375,0.0977020263671875,-0.0595855712890625,0.11444600717036994,0
0.0114593505859375,-0.135589599609375,-0.0723724365234375,0.15412211329468928,0
-0.007720947265625,0.0593414306640625,-0.0627899169921875,0.08673864246010596,0
0.0114593505859375,0.0018310546875,-0.044677734375,0.04616025807990136,0
0.01251220703125,-0.0727386474609375,-0.0404052734375,0.0841430465386092,0
0.0093231201171875,0.057220458984375,-0.0382843017578125,0.06947509810130024,0
-0.0023956298828125,-0.1217498779296875,-0.053192138671875,0.13288406764889918,0
-0.0130462646484375,0.1530914306640625,-0.0574493408203125,0.1640354166780301,0
-0.021575927734375,-0.0077667236328125,-0.05426025390625,0.05890685705041629,0
0.0071868896484375,-0.0727386474609375,-0.055328369140625,0.0916721912524547,0
-0.007720947265625,0.1658782958984375,-0.0595855712890625,0.17642466489324019,0
0.0082550048828125,-0.0301361083984375,-0.053192138671875,0.06169062936545236,0
0.006134033203125,-0.0855255126953125,-0.0393524169921875,0.09434432896714093,0
-0.0258331298828125,-0.0045623779296875,-0.0287017822265625,0.03888390663110612,0
-0.01837158203125,-0.0407867431640625,-0.0574493408203125,0.07281140161369352,0
-0.007720947265625,0.1200714111328125,-0.0989990234375,0.1558125907610875,0
0.0029296875,-0.069549560546875,-0.0713043212890625,0.09964953926438867,0
-0.0247650146484375,-0.01202392578125,0.001129150390625,0.02755278066429922,0
-0.029022216796875,0.055084228515625,0.01177978515625,0.06336658928247453,0
0.0231781005859375,-0.193115234375,-0.0755615234375,0.20866303438481595,0
-0.0162506103515625,0.1520233154296875,-0.1384124755859375,0.20623574900792616,0
0.0103912353515625,-0.0066986083984375,-0.109649658203125,0.11034444558141256,0
0.003997802734375,-0.1995086669921875,-0.0872802734375,0.21780159954193934,0
-0.019439697265625,0.1530914306640625,-0.0958099365234375,0.18164369493371832,0
-0.0386199951171875,-0.00244140625,-0.1394805908203125,0.14474909223519355,0
0.034881591796875,0.0486907958984375,-0.1490631103515625,0.1606465994635094,0
0.02423095703125,-0.208038330078125,-0.0968780517578125,0.23076490845172837,0
-0.0439453125,0.090240478515625,-0.0851593017578125,0.13163069979807066,0
0.037017822265625,0.1051483154296875,-0.1192474365234375,0.16323736863966448,0
0.0306243896484375,-0.196319580078125,-0.1490631103515625,0.24839291783598172,0
-0.0130462646484375,0.2106170654296875,-0.1309661865234375,0.248358400872574,0
-0.06524658203125,0.0604095458984375,-0.111785888671875,0.14283737119037473,0
-0.0247650146484375,0.07958984375,-0.1192474365234375,0.14549158152999092,0
0.0210418701171875,-0.102569580078125,-0.1032562255859375,0.14705484411499506,0
-0.007720947265625,-0.055694580078125,-0.12457275390625,0.13667432199409063,0
0.006134033203125,0.2660064697265625,-0.14373779296875,0.302419611512304,0
0.048736572265625,-0.2122955322265625,-0.1171112060546875,0.2473048342898808,0
0.0071868896484375,-0.0876617431640625,-0.0968780517578125,0.13084949182083314,0
0.0071868896484375,0.1733245849609375,-0.14801025390625,0.22803530076743087,0
0.0029296875,-0.032257080078125,-0.166107177734375,0.1692356250288144,0
0.0316925048828125,-0.1547698974609375,-0.12030029296875,0.19857063356444044,0
-0.0247650146484375,0.07958984375,-0.0958099365234375,0.1269936735247542,0
7.9345703125E-4,-0.0312042236328125,-0.111785888671875,0.11606213014048918,0
-0.005584716796875,-0.1409149169921875,-0.1266937255859375,0.18957716897206062,0
-0.0130462646484375,0.0614776611328125,-0.1043243408203125,0.12179193703702522,0
0.015716552734375,-0.08978271484375,-0.0808868408203125,0.12186314837742003,0
-0.01092529296875,0.0529632568359375,-0.0926055908203125,0.10723928409077359,0
-0.01092529296875,0.0827789306640625,-0.10113525390625,0.1311489724360063,0
0.015716552734375,-0.0961761474609375,-0.10113525390625,0.1404464344615485,0
0.0029296875,0.181854248046875,-0.1043243408203125,0.20967383882863097,0
0.0444793701171875,-0.0205535888671875,-0.0915374755859375,0.10382665273420515,0
0.04022216796875,-0.0770111083984375,-0.067047119140625,0.10974447502229619,0
0.0093231201171875,0.1456298828125,-0.0585174560546875,0.15722364961994195,0
0.0199737548828125,-0.1153564453125,-0.0755615234375,0.13933988726653376,0
-0.0375518798828125,0.11260986328125,-0.0947418212890625,0.15187869400321974,0
0.0103912353515625,0.099822998046875,-0.0926055908203125,0.13655915993582093,0
0.0434112548828125,-0.170745849609375,-0.0691680908203125,0.18926940322475477,0
-0.01092529296875,0.14990234375,-0.0627899169921875,0.1628884537469798,0
0.015716552734375,0.0071563720703125,-0.05426025390625,0.056942065689890964,0
0.0380859375,-0.16009521484375,-0.0467987060546875,0.1710880923369988,0
7.9345703125E-4,0.0966339111328125,-0.0574493408203125,0.11242405932705493,0
0.05938720703125,-0.03759765625,-0.053192138671875,0.08814662631634686,0
0.0338287353515625,-0.123870849609375,-0.034027099609375,0.13283905384434497,0
-0.017303466796875,0.1658782958984375,-0.0169830322265625,0.1676408136372781,0
0.006134033203125,-0.0919189453125,-0.021240234375,0.0945402899667879,0
0.0146484375,-0.1345367431640625,-0.0382843017578125,0.14064280907130505,0
-0.031158447265625,0.170135498046875,-0.0500030517578125,0.1800478872876808,0
-0.0013275146484375,-0.0173492431640625,-0.0489349365234375,0.05193637016639152,0
-0.005584716796875,-0.1526336669921875,-0.01165771484375,0.153180049864731,0
0.0071868896484375,-0.0077667236328125,0.001129150390625,0.010641821245066789,0
0.0029296875,0.043365478515625,-0.01910400390625,0.047477476354444166,0
0.0029296875,-0.0407867431640625,-0.01910400390625,0.045134293525310336,0
0.013580322265625,-0.036529541015625,-0.0169830322265625,0.04251183250883123,0
-0.0034637451171875,0.0859832763671875,-0.0148468017578125,0.08732438873252288,0
0.0082550048828125,-0.0748748779296875,-0.008453369140625,0.07580139774719549,0
0.0189056396484375,-0.043975830078125,0.002197265625,0.04791789663375785,0
-0.031158447265625,0.0412445068359375,-0.010589599609375,0.0527645506001075,0
0.0103912353515625,0.012481689453125,-0.0350799560546875,0.038657129491655486,0
-0.0013275146484375,-0.0279998779296875,-0.0361480712890625,0.04574318000684213,0
-0.0023956298828125,0.033782958984375,-9.918212890625E-4,0.03388231204839518,0
0.0189056396484375,-0.0567626953125,0.0192413330078125,0.0628462861716889,0
-0.0460662841796875,0.0508270263671875,0.0192413330078125,0.0712440737421158,0
-0.0087890625,-0.0418548583984375,0.0192413330078125,0.04689675561379161,0
-0.0205078125,-0.057830810546875,0.0288238525390625,0.06779223773587449,0
-0.033294677734375,0.0508270263671875,0.0224456787109375,0.0647744599943627,0
-0.017303466796875,0.0636138916015625,0.02349853515625,0.06998798698616368,0
0.0199737548828125,-0.1419830322265625,0.038421630859375,0.14843973202031133,0
-0.0236968994140625,0.04656982421875,0.02349853515625,0.05729286800374883,0
-0.0141143798828125,0.14990234375,0.03521728515625,0.15462918726746297,0
0.0146484375,-0.283660888671875,0.048004150390625,0.2880667890230233,0
-0.0492706298828125,0.11260986328125,0.0448150634765625,0.13083182407839172,0
-0.017303466796875,0.0966339111328125,0.0437469482421875,0.10747705906154807,0
0.0146484375,-0.2357330322265625,0.01177978515625,0.23648129427556921,0
-0.021575927734375,0.2670745849609375,0.02349853515625,0.26897311342241165,0
-0.0034637451171875,-0.07061767578125,0.0511932373046875,0.08729032712000014,0
0.0082550048828125,-0.0727386474609375,0.045867919921875,0.08638820531774778,0
-0.009857177734375,0.1190032958984375,0.0203094482421875,0.12112564582069407,0
0.003997802734375,-0.0684814453125,0.012847900390625,0.06979082549475488,0
0.006134033203125,0.0742645263671875,0.025634765625,0.07880347358161574,0
0.02423095703125,-0.0865936279296875,0.0629119873046875,0.109742944298486,0
0.0029296875,-0.03546142578125,0.05865478515625,0.06860378713316491,0
0.0071868896484375,0.0859832763671875,0.012847900390625,0.08723441833417808,0
0.027435302734375,-0.0269317626953125,6.103515625E-5,0.038445017925522275,0
0.03594970703125,0.047637939453125,0.0554656982421875,0.08147513972044301,0
-0.0013275146484375,-0.123870849609375,0.0895538330078125,0.15285823067300428,0
-0.021575927734375,0.1168670654296875,0.03948974609375,0.12523127279675264,0
0.02423095703125,0.0391082763671875,0.01177978515625,0.047490629574580376,0
-0.0130462646484375,-0.079132080078125,0.025634765625,0.08419757910662598,0
-0.021575927734375,0.2244720458984375,0.038421630859375,0.2287562933895443,0
0.0146484375,-0.128143310546875,0.0298919677734375,0.13239642931919454,0
-0.031158447265625,0.0263214111328125,0.02777099609375,0.049344642506217,0
-0.0151824951171875,0.1296539306640625,0.0213775634765625,0.13227868352391253,0
0.02850341796875,-0.139862060546875,0.02349853515625,0.14465829381963727,0
0.001861572265625,0.068939208984375,0.0203094482421875,0.0718926538291192,0
-0.0034637451171875,0.0710601806640625,0.034149169921875,0.07891585780183305,0
0.0221099853515625,-0.1324005126953125,0.04693603515625,0.1422031596358416,0
0.001861572265625,0.0380401611328125,0.0203094482421875,0.043162402600093706,0
0.0306243896484375,-0.034393310546875,0.005401611328125,0.04636734256622043,0
-0.0119781494140625,-0.0077667236328125,0.0288238525390625,0.03216539343094864,0
-0.0471343994140625,0.0071563720703125,0.038421630859375,0.061229788397700685,0
-0.0396728515625,-0.0652923583984375,0.024566650390625,0.0802530219228246,0
-0.0322265625,0.111541748046875,0.0171051025390625,0.11735713621587224,0
-0.0013275146484375,-0.0312042236328125,0.0309600830078125,0.04397718280562127,0
-0.019439697265625,0.0273895263671875,0.0224456787109375,0.040396738447461826,0
-0.042877197265625,0.031646728515625,0.025634765625,0.05913637357621512,0
-0.021575927734375,-0.0407867431640625,0.0298919677734375,0.0549782576378917,0
-0.0034637451171875,0.1392364501953125,0.025634765625,0.1416189528342773,0
-0.005584716796875,-0.0407867431640625,0.0213775634765625,0.0463869345810537,0
-0.0162506103515625,0.01141357421875,0.0171051025390625,0.02620947435789332,0
-0.009857177734375,0.0721282958984375,0.02349853515625,0.07649729522400861,0
-0.0247650146484375,-0.0333251953125,0.0203094482421875,0.0462206477784084,0
-0.009857177734375,0.012481689453125,0.005401611328125,0.016796842841184125,0
-0.0279693603515625,-0.046112060546875,0.0064544677734375,0.05431636402220389,0
7.9345703125E-4,-0.0727386474609375,0.0203094482421875,0.07552492367694974,0
0.0093231201171875,0.0071563720703125,0.0085906982421875,0.014557964356893393,0
-0.0151824951171875,-0.0045623779296875,-0.0031280517578125,0.0161588414855854,0
0.0189056396484375,-0.0684814453125,-0.01910400390625,0.07356693909532674,0
-0.005584716796875,0.00927734375,-0.009521484375,0.014419321532594068,0
0.0263671875,-0.0418548583984375,0.0085906982421875,0.0502081452007713,0
-0.0119781494140625,0.0071563720703125,0.0171051025390625,0.02207428951214958,0
-0.0141143798828125,0.1051483154296875,0.0096588134765625,0.1065301677223519,0
-0.0023956298828125,-0.0450439453125,0.0224456787109375,0.05038357415513064,0
0.0199737548828125,-0.1291961669921875,0.0437469482421875,0.13785643231310069,0
-0.005584716796875,0.10302734375,0.012847900390625,0.10397543539860453,0
0.015716552734375,0.0486907958984375,-0.0137786865234375,0.052987317703266,0
0.003997802734375,-0.0983123779296875,-9.918212890625E-4,0.09839862697396809,0
-0.0130462646484375,0.0497589111328125,0.0096588134765625,0.05233972617596721,0
0.006134033203125,0.010345458984375,-0.0020599365234375,0.012202385972219414,0
0.0338287353515625,-0.0535736083984375,-0.0127105712890625,0.06462254618018023,0
0.003997802734375,-0.02587890625,-0.0052642822265625,0.026709790017148526,0
-0.007720947265625,0.03485107421875,-0.0127105712890625,0.037891542900411475,0
0.0029296875,-0.059967041015625,-0.018035888671875,0.06268909280888962,0
0.003997802734375,-0.07061767578125,-0.022308349609375,0.07416536268193408,0
-0.0130462646484375,0.12646484375,-0.031890869140625,0.1310747468452007,0
0.0093231201171875,-0.1196136474609375,-0.0244293212890625,0.12243829860902669,0
-0.005584716796875,-0.071685791015625,-0.018035888671875,0.07413052660963247,0
-0.0354156494140625,0.195709228515625,-0.01910400390625,0.19980323649743748,0
0.0210418701171875,-0.126007080078125,-0.0287017822265625,0.1309363846714297,0
-0.031158447265625,0.0529632568359375,-0.0382843017578125,0.0723991931706249,0
-0.029022216796875,0.1190032958984375,-0.0287017822265625,0.12580884629260736,0
0.01251220703125,-0.2090911865234375,-0.008453369140625,0.20963572943656208,0
-0.007720947265625,0.14776611328125,-0.022308349609375,0.14963990017111034,0
-2.593994140625E-4,0.1094207763671875,-0.045745849609375,0.1185987198300961,0
0.0380859375,-0.26129150390625,-0.03082275390625,0.2658455017622247,0
-0.052459716796875,0.1978302001953125,-0.03082275390625,0.20697548684346898,0
0.046600341796875,-0.0546417236328125,-0.01165771484375,0.07275446469137427,0
0.025299072265625,-0.193115234375,-0.0169830322265625,0.19550437383552563,0
-0.0386199951171875,0.27239990234375,-0.0500030517578125,0.27963103548216994,0
0.0093231201171875,-0.034393310546875,-0.0574493408203125,0.06760360300887604,0
-0.0226287841796875,-0.0194854736328125,-0.0287017822265625,0.041419051885900594,0
-0.0034637451171875,0.0369720458984375,-0.00738525390625,0.03786121608470587,0
0.1744384765625,0.1882476806640625,-0.018035888671875,0.2572766306158198,2
0.1573944091796875,0.217010498046875,-0.0500030517578125,0.27270288133547493,2
0.093475341796875,-0.0450439453125,-0.055328369140625,0.11759177252307818,2
-0.0791015625,0.1083526611328125,-0.0159149169921875,0.1350949330928874,2
-0.101470947265625,-0.055694580078125,0.0107269287109375,0.11624674786260243,2
-0.0162506103515625,0.13604736328125,-0.01910400390625,0.13833990876760305,2
-0.00665283203125,0.06573486328125,-0.0276336669921875,0.07161670179557118,2
-0.054595947265625,-0.001373291015625,0.0107269287109375,0.05565671914166373,2
-0.042877197265625,0.10089111328125,0.02777099609375,0.11308713016309335,2
-0.0130462646484375,-0.0152130126953125,0.0096588134765625,0.02224709990807419,2
-0.0279693603515625,0.012481689453125,0.034149169921875,0.04587203392518039,2
-0.01092529296875,0.02313232421875,0.0320281982421875,0.04099112017077904,2
-0.007720947265625,0.0284576416015625,0.0213775634765625,0.0364204696893931,2
-0.005584716796875,-0.0407867431640625,-0.0041961669921875,0.04138061499130747,2
-0.005584716796875,0.043365478515625,0.0064544677734375,0.044197442718202314,2
-0.021575927734375,-0.05889892578125,0.025634765625,0.06776241823040888,2
-0.0141143798828125,-0.1185455322265625,0.0533294677734375,0.13075278606344654,2
-0.0599212646484375,-0.0503692626953125,0.0863494873046875,0.1165497942482949,2
0.0178375244140625,-0.0056304931640625,0.0639801025390625,0.06665833219787143,2
0.0423431396484375,0.0135498046875,-0.0041961669921875,0.044655867473186554,2
0.0657806396484375,-0.057830810546875,0.014984130859375,0.0888595486072094,2
0.1275634765625,-0.043975830078125,0.095947265625,0.1655662766528435,2
0.1467437744140625,-0.013092041015625,0.1236419677734375,0.1923342742782155,2
0.048736572265625,-0.1228179931640625,0.050140380859375,0.1413278837093847,2
0.0221099853515625,0.0614776611328125,-0.0734405517578125,0.09829480613490811,2
0.006134033203125,-0.0855255126953125,-0.0723724365234375,0.11220521045598592,2
-0.019439697265625,0.0646820068359375,0.0448150634765625,0.08105586809424559,2
-0.009857177734375,0.0369720458984375,0.0916748046875,0.09933964941197698,2
0.02850341796875,-0.0205535888671875,0.025634765625,0.04349754084855046,2
0.034881591796875,-0.081268310546875,-0.029754638671875,0.09330917568985898,2
0.0455474853515625,-0.032257080078125,-0.032958984375,0.06481810926005836,2
0.060455322265625,-0.013092041015625,-0.0052642822265625,0.06208027219299447,2
0.0551300048828125,-0.010955810546875,0.01177978515625,0.05742917865898271,2
0.039154052734375,-0.0205535888671875,0.0288238525390625,0.05278545572448164,2
0.0221099853515625,-0.0333251953125,0.01605224609375,0.04309402162152997,2
0.013580322265625,-0.0077667236328125,-0.0031280517578125,0.015954054551313036,2
0.0231781005859375,0.04656982421875,-0.01910400390625,0.05541602511717279,2
0.0071868896484375,-0.0514373779296875,-0.0052642822265625,0.05220314069537601,2
0.0082550048828125,0.04443359375,0.0192413330078125,0.049119428488866114,2
0.0146484375,0.0827789306640625,6.103515625E-5,0.08406504510417735,2
0.00506591796875,-0.046112060546875,-0.010589599609375,0.047582825395636665,2
-0.01092529296875,0.1179351806640625,-0.00738525390625,0.11867017670829458,2
-0.00665283203125,0.0273895263671875,0.01177978515625,0.03054848060022451,2
-2.593994140625E-4,0.0273895263671875,0.0075225830078125,0.028404976637629975,2
0.0231781005859375,-0.034393310546875,0.0064544677734375,0.04197361446651888,2
0.0189056396484375,-0.02587890625,0.00433349609375,0.03234068934960119,2
0.00506591796875,0.0401763916015625,0.012847900390625,0.04248381469966683,2
0.0103912353515625,-0.0088348388671875,0.014984130859375,0.02026218960407792,2
0.0114593505859375,0.0252532958984375,-0.0020599365234375,0.027808074512020033,2
0.0263671875,-0.013092041015625,0.0064544677734375,0.030137854416884206,2
0.0093231201171875,0.05401611328125,0.025634765625,0.060512827329261526,2
0.003997802734375,-0.0184173583984375,0.0320281982421875,0.03716163343719346,2
0.00506591796875,0.02313232421875,0.014984130859375,0.02802306418360323,2
0.0146484375,0.00927734375,0.01605224609375,0.02362880515179264,2
0.0263671875,-0.0493011474609375,0.025634765625,0.061505877168559604,2
0.0071868896484375,0.035919189453125,0.026702880859375,0.0453308217439115,2
0.0082550048828125,-0.0184173583984375,0.0213775634765625,0.0293997349679587,2
0.015716552734375,0.019927978515625,0.014984130859375,0.029473013676624183,2
0.0189056396484375,-0.0397186279296875,0.02349853515625,0.049871572760672396,2
0.0263671875,-0.03546142578125,0.0330963134765625,0.055209666371371514,2
0.0093231201171875,0.0039520263671875,0.0298919677734375,0.031560557956010184,2
0.0295562744140625,-0.0301361083984375,0.0288238525390625,0.05111333350345446,2
0.01678466796875,-0.043975830078125,0.0309600830078125,0.056339377434720964,2
0.0082550048828125,-0.03759765625,0.0330963134765625,0.05076509457144067,2
0.01251220703125,0.0859832763671875,0.0181732177734375,0.08876905420173063,2
0.0295562744140625,-0.0620880126953125,0.012847900390625,0.06995400790619558,2
0.01678466796875,0.02099609375,0.0224456787109375,0.03501955916876459,2
0.0263671875,0.06787109375,0.03521728515625,0.08088245246812235,2
0.034881591796875,-0.0088348388671875,0.045867919921875,0.05829790649802548,2
0.0455474853515625,0.0284576416015625,0.0405426025390625,0.06729125803560354,2
0.03594970703125,-0.0034942626953125,0.0309600830078125,0.04757224030111677,2
0.0434112548828125,-0.0077667236328125,0.0288238525390625,0.05268466116131545,2
0.0295562744140625,0.0135498046875,0.0320281982421875,0.04563963241470756,2
0.0189056396484375,0.0284576416015625,0.036285400390625,0.049838648231543374,2
0.025299072265625,-0.0056304931640625,0.0448150634765625,0.051770024388445066,2
0.0327606201171875,0.0028839111328125,0.048004150390625,0.05818911950365268,2
0.027435302734375,0.008209228515625,0.045867919921875,0.054073591954928356,2
0.0338287353515625,-0.00244140625,0.0554656982421875,0.0650137484033723,2
0.034881591796875,0.0178070068359375,0.060791015625,0.07231433135594864,2
0.006134033203125,-0.00244140625,0.0533294677734375,0.05373657005068976,2
-0.005584716796875,0.0412445068359375,0.0320281982421875,0.05251765311285202,2
0.0306243896484375,0.0028839111328125,0.038421630859375,0.049217800668613414,2
0.02423095703125,0.0018310546875,0.0565338134765625,0.06153506403768228,2
0.0199737548828125,0.0252532958984375,0.071441650390625,0.07836191197507247,2
0.0434112548828125,-0.013092041015625,0.092742919921875,0.10323365625652633,2
0.0338287353515625,0.0295257568359375,0.0895538330078125,0.10018005120088595,2
0.01678466796875,-0.0279998779296875,0.0671844482421875,0.07469583876298434,2
0.0210418701171875,0.0305938720703125,0.0661163330078125,0.07582951138365057,2
0.0221099853515625,0.0060882568359375,0.0778350830078125,0.08114319731425247,2
0.0189056396484375,0.0060882568359375,0.0778350830078125,0.08032926134759347,2
0.0189056396484375,0.0252532958984375,0.0767669677734375,0.08299590053357216,2
0.0189056396484375,-0.0066986083984375,0.0852813720703125,0.0876082586699865,2
0.006134033203125,0.0295257568359375,0.0895538330078125,0.09449489767422957,2
0.0146484375,-0.010955810546875,0.0884857177734375,0.09035667521445694,2
0.0178375244140625,-0.0045623779296875,0.0767669677734375,0.07894403024120042,2
0.015716552734375,0.0273895263671875,0.0884857177734375,0.09395168138118488,2
0.01678466796875,0.012481689453125,0.095947265625,0.09820079139874455,2
0.0178375244140625,0.04656982421875,0.09381103515625,0.1062423461811472,2
0.01251220703125,-0.034393310546875,0.0916748046875,0.09871030822390292,2
-0.0034637451171875,0.033782958984375,0.0767669677734375,0.08394315451008971,2
0.0082550048828125,-0.0216064453125,0.0874176025390625,0.09042577518791209,2
-0.0045318603515625,0.0263214111328125,0.09381103515625,0.0975390422310768,2
-2.593994140625E-4,0.035919189453125,0.0852813720703125,0.09253738639717776,2
0.01678466796875,-0.01202392578125,0.1023406982421875,0.10440267423161473,2
-0.0269012451171875,0.03271484375,0.1129913330078125,0.12066888300354942,2
-0.0141143798828125,0.04656982421875,0.1097869873046875,0.12008807946120727,2
-0.0386199951171875,-0.0173492431640625,0.1023406982421875,0.1107525113842383,2
-0.0279693603515625,0.0305938720703125,0.094879150390625,0.10353899413060298,2
-0.0375518798828125,-0.0397186279296875,0.0991363525390625,0.11320657879336966,2
-0.0279693603515625,0.0039520263671875,0.1023406982421875,0.10616742507747365,2
-0.0599212646484375,0.03271484375,0.1023406982421875,0.1230221015726584,2
-0.0588531494140625,-0.0216064453125,0.1023406982421875,0.12001729121961759,2
-0.0620574951171875,-0.048248291015625,0.10552978515625,0.1315886235252595,2
-0.0748291015625,0.0018310546875,0.1097869873046875,0.1328756177158141,2
-0.0950775146484375,0.010345458984375,0.0884857177734375,0.13029383931407373,2
-0.0684356689453125,0.047637939453125,0.0671844482421875,0.10708204398935979,2
-0.0588531494140625,0.0518951416015625,0.071441650390625,0.10611648471531875,2
-0.052459716796875,-0.0152130126953125,0.0906219482421875,0.10581018450454464,2
-0.0513916015625,0.0380401611328125,0.0852813720703125,0.10658828731321358,2
-0.054595947265625,0.0167388916015625,0.0671844482421875,0.08817402131856603,2
-0.0567169189453125,0.0178070068359375,0.0533294677734375,0.07986194663356498,2
-0.0513916015625,0.0039520263671875,0.0533294677734375,0.0741670233767259,2
-0.0716400146484375,-0.0205535888671875,0.049072265625,0.08923468477963191,2
-0.0513916015625,-0.01202392578125,0.048004150390625,0.07134472620367607,2
-0.06524658203125,-0.010955810546875,0.049072265625,0.08237252882527166,2
-0.0577850341796875,-0.0290679931640625,0.0426788330078125,0.07749542688857441,2
-0.0577850341796875,-0.0279998779296875,0.034149169921875,0.07272736173943165,2
-0.0599212646484375,-0.0546417236328125,0.0309600830078125,0.08680324105978639,2
-0.0673828125,-0.0066986083984375,0.02349853515625,0.07167632753828346,2
-0.0684356689453125,-0.034393310546875,0.0213775634765625,0.07951943670927664,2
-0.0684356689453125,-0.0450439453125,0.01605224609375,0.0834869594485403,2
-0.073760986328125,0.02313232421875,0.012847900390625,0.07836361446683424,2
-0.0620574951171875,-0.001373291015625,0.0171051025390625,0.06438635850322015,2
-0.078033447265625,-0.0162811279296875,0.0171051025390625,0.08152839107753673,2
-0.07696533203125,0.019927978515625,0.012847900390625,0.08053480742416406,2
-0.0695037841796875,0.0028839111328125,0.012847900390625,0.07074009826941124,2
-0.06524658203125,-0.0216064453125,0.012847900390625,0.06992155240160297,2
-0.0631103515625,-0.0034942626953125,0.0085906982421875,0.06378813716056084,2
-0.0588531494140625,-0.0152130126953125,0.00433349609375,0.060941842272910086,2
-0.0588531494140625,-0.01416015625,0.0075225830078125,0.0609982989606088,2
-0.064178466796875,-0.0088348388671875,0.0075225830078125,0.06521900975418274,2
-0.0577850341796875,-0.001373291015625,0.003265380859375,0.0578935127239488,2
-0.0556640625,0.02313232421875,-0.0127105712890625,0.06160479608163324,2
-0.042877197265625,-0.043975830078125,-0.022308349609375,0.06534516155546288,2
-0.0482025146484375,-0.024810791015625,0.001129150390625,0.05422483517594589,2
-0.05352783203125,0.035919189453125,0.0064544677734375,0.06478485260594133,2
-0.045013427734375,0.008209228515625,-0.0127105712890625,0.04748851157610534,2
-0.0439453125,-0.0418548583984375,-0.020172119140625,0.06395259222970934,2
-0.0460662841796875,0.0604095458984375,-0.0265655517578125,0.08048070771294304,2
-0.0364837646484375,-0.043975830078125,-0.03082275390625,0.06492288404213072,2
-0.03009033203125,0.0284576416015625,-0.0361480712890625,0.05497225213862895,2
-0.029022216796875,-0.034393310546875,-0.021240234375,0.04976280171456917,2
-0.0396728515625,-0.00244140625,-0.0159149169921875,0.0428156536613178,2
-0.033294677734375,0.019927978515625,-0.0244293212890625,0.04585249864292392,2
-0.0258331298828125,-0.0333251953125,-0.010589599609375,0.04347480721113559,2
-0.0577850341796875,7.62939453125E-4,6.103515625E-5,0.0577901027603091,2
-0.0396728515625,0.0305938720703125,-0.0404052734375,0.06436230481356264,2
-0.0236968994140625,-0.02587890625,-0.0606536865234375,0.0700723234909469,2
-0.0364837646484375,0.0156707763671875,-0.043609619140625,0.058978277327023945,2
-0.0343475341796875,0.0050201416015625,-0.0254974365234375,0.04307057226449707,2
-0.0258331298828125,0.02099609375,-0.043609619140625,0.05486333414851321,2
-0.007720947265625,0.00927734375,-0.06597900390625,0.06707392257945839,2
-0.019439697265625,-0.0546417236328125,-0.0691680908203125,0.09026541186451656,2
-0.0013275146484375,0.0636138916015625,-0.0595855712890625,0.08717184066934178,2
-0.029022216796875,0.057220458984375,-0.0617218017578125,0.08902837079503399,2
-0.0023956298828125,-0.139862060546875,-0.05426025390625,0.15003769585315507,2
-0.0205078125,0.193572998046875,-0.0372161865234375,0.1981820387566389,2
-0.0364837646484375,-0.0407867431640625,-0.0372161865234375,0.06617906043607047,2
-0.0226287841796875,0.0178070068359375,-0.0478668212890625,0.055860396939379574,2
-0.0258331298828125,0.1179351806640625,-0.05426025390625,0.1323640154716456,2
-0.0034637451171875,-0.024810791015625,-0.053192138671875,0.05879605852049811,2
0.015716552734375,0.0977020263671875,-0.0617218017578125,0.11662879918072422,2
-0.0151824951171875,-0.057830810546875,-0.0617218017578125,0.0859330647581167,2
0.0316925048828125,0.0380401611328125,-0.053192138671875,0.0726696108510663,2
0.04766845703125,0.1424407958984375,-0.0595855712890625,0.16159239597754718,2
0.0380859375,-0.0514373779296875,-0.06597900390625,0.09192155046558104,2
0.0221099853515625,-0.0290679931640625,-0.05426025390625,0.06540622931191654,2
0.015716552734375,-0.0152130126953125,-0.05426025390625,0.05850317033367378,2
0.0306243896484375,-0.0961761474609375,-0.06597900390625,0.12058579326864452,2
0.0189056396484375,0.0050201416015625,-0.0713043212890625,0.07393869938476172,2
0.0338287353515625,-0.07061767578125,-0.0702362060546875,0.10518728111890865,2
0.0306243896484375,-0.0173492431640625,-0.06597900390625,0.07478020082993926,2
0.0221099853515625,0.0284576416015625,-0.0606536865234375,0.07055181433990704,2
0.0338287353515625,0.0018310546875,-0.0489349365234375,0.059517762972977464,2
0.0189056396484375,0.04443359375,-0.045745849609375,0.06651654095441348,2
0.02850341796875,0.0284576416015625,-0.0489349365234375,0.06337909918874754,2
0.0380859375,-0.022674560546875,-0.0521240234375,0.0684221320229124,2
0.03594970703125,0.0188751220703125,-0.0574493408203125,0.0703496867760641,2
0.0412750244140625,-0.0269317626953125,-0.05426025390625,0.07330158686023652,2
0.046600341796875,7.62939453125E-4,-0.053192138671875,0.07072183219263121,2
0.048736572265625,-0.0077667236328125,-0.055328369140625,0.07414043366444684,2
0.04766845703125,-0.034393310546875,-0.05426025390625,0.07999597964950882,2
0.037017822265625,0.0071563720703125,-0.05426025390625,0.06607350437557304,2
0.03594970703125,-3.0517578125E-4,-0.055328369140625,0.06598259618756624,2
0.034881591796875,-0.0279998779296875,-0.0574493408203125,0.07280896490851688,2
0.02423095703125,-0.013092041015625,-0.0691680908203125,0.07444975221135454,2
0.0529937744140625,-0.0567626953125,-0.0872802734375,0.11682546741662549,2
0.0551300048828125,-0.0386505126953125,-0.0691680908203125,0.09652670282215405,2
0.0178375244140625,0.0305938720703125,-0.0489349365234375,0.06040521747357409,2
0.006134033203125,-0.0279998779296875,-0.0574493408203125,0.0642031641595869,2
0.02850341796875,-0.0034942626953125,-0.0734405517578125,0.07885536982461656,2
0.0221099853515625,-0.0098876953125,-0.078765869140625,0.08240558301666948,2
0.0263671875,-0.0152130126953125,-0.0723724365234375,0.07851390896055861,2
0.0178375244140625,-0.0279998779296875,-0.06597900390625,0.07386067558424192,2
0.01251220703125,0.00927734375,-0.076629638671875,0.07819671319710725,2
0.0221099853515625,-0.013092041015625,-0.074493408203125,0.07880051304349818,2
0.0199737548828125,-0.024810791015625,-0.0702362060546875,0.07712101448954245,2
0.0295562744140625,0.0252532958984375,-0.088348388671875,0.09652326192110426,2
0.027435302734375,-0.0727386474609375,-0.086212158203125,0.11608679034504317,2
-0.0034637451171875,0.0252532958984375,-0.078765869140625,0.08278761154574361,2
-0.144073486328125,-0.092987060546875,-0.068115234375,0.18450866658737144,0
-0.0588531494140625,-0.2229461669921875,-0.078765869140625,0.24366523903491114,0
0.0316925048828125,0.1637420654296875,-0.102203369140625,0.19560523387839604,0
0.0093231201171875,-0.0386505126953125,-0.1032562255859375,0.11064642254760898,0
0.0146484375,-0.0951080322265625,-0.111785888671875,0.1474998285468871,0
-2.593994140625E-4,0.1520233154296875,-0.121368408203125,0.1945287799582639,0
0.0082550048828125,-0.059967041015625,-0.0926055908203125,0.11063447276940427,0
0.0178375244140625,-0.024810791015625,-0.0808868408203125,0.08646637291996159,0
0.0199737548828125,0.10089111328125,-0.0936737060546875,0.1391140928492462,0
0.0423431396484375,-0.0951080322265625,-0.0989990234375,0.1436637947113837,0
0.0231781005859375,-0.02374267578125,-0.0926055908203125,0.0983703941803861,0
0.027435302734375,0.0039520263671875,-0.0702362060546875,0.07550787369202148,0
0.0189056396484375,-0.04718017578125,-0.0808868408203125,0.09553048317242405,0
0.01251220703125,0.1978302001953125,-0.100067138671875,0.22205129064269485,0
0.0103912353515625,0.057220458984375,-0.078765869140625,0.09790924797991335,0
0.04022216796875,-0.11322021484375,-0.0617218017578125,0.1350785721630265,0
0.025299072265625,0.16162109375,-0.0808868408203125,0.18249411502932958,0
0.0434112548828125,-0.069549560546875,-0.100067138671875,0.12936425574609164,0
0.034881591796875,-0.1068267822265625,-0.079833984375,0.13784829309190946,0
-0.019439697265625,0.1179351806640625,-0.0500030517578125,0.1295643232264912,0
0.0572662353515625,-0.092987060546875,-0.055328369140625,0.12242239816410234,0
0.0902862548828125,-0.0397186279296875,-0.068115234375,0.11987018970262088,0
0.095611572265625,-0.0983123779296875,-0.0840911865234375,0.1608671006023733,0
0.0029296875,-0.1217498779296875,-0.1032562255859375,0.15966672780199223,0
0.0327606201171875,0.1765289306640625,-0.0585174560546875,0.1888385931290856,0
-0.0023956298828125,-0.1558380126953125,-0.0404052734375,0.16100873071022873,0
-0.03009033203125,0.1296539306640625,-0.0585174560546875,0.14539553803849925,0
0.00506591796875,-0.0386505126953125,-0.0478668212890625,0.0617313391786997,0
-0.01092529296875,-0.067413330078125,-0.01910400390625,0.07091461107504762,0
-0.0034637451171875,0.01141357421875,-0.0361480712890625,0.038065079332675764,0
0.0231781005859375,-0.07061767578125,-0.0617218017578125,0.09661087563907225,0
-0.0322265625,0.0742645263671875,-0.0713043212890625,0.1078799214015423,0
0.013580322265625,0.012481689453125,-0.044677734375,0.04833547013659367,0
0.006134033203125,-0.2122955322265625,-0.043609619140625,0.21681517070603443,0
-0.0343475341796875,0.33099365234375,-0.0393524169921875,0.3350897845640882,0
0.0199737548828125,-0.260223388671875,-0.029754638671875,0.2626794651633169,0
-0.019439697265625,-0.0290679931640625,-0.053192138671875,0.06365731437040925,0
-0.073760986328125,0.3672027587890625,-0.0521240234375,0.3781474090691477,0
0.062591552734375,-0.457305908203125,-0.067047119140625,0.4664136708290637,0
-0.031158447265625,0.22979736328125,-0.068115234375,0.24169683936903416,0
-0.0354156494140625,0.179718017578125,-0.056396484375,0.19165958759083943,0
0.0316925048828125,-0.3603668212890625,-0.0372161865234375,0.3636670253007241,0
-0.042877197265625,0.23724365234375,-0.0521240234375,0.24665749216691246,0
0.0093231201171875,-0.07806396484375,-0.055328369140625,0.09613600578142929,0
0.006134033203125,-0.1345367431640625,-0.0691680908203125,0.15140008722671516,0
-0.0247650146484375,0.240447998046875,-0.0585174560546875,0.24870230875164712,0
0.013580322265625,-0.1675567626953125,-0.0350799560546875,0.1717273920915656,0
0.0029296875,0.0401763916015625,-0.0382843017578125,0.055573494330058135,0
0.0082550048828125,0.0753326416015625,-0.067047119140625,0.10118531603618129,0
-0.0013275146484375,-0.057830810546875,-0.0713043212890625,0.09181759732286734,0
-0.0141143798828125,0.08917236328125,-0.018035888671875,0.09206638568350467,0
-0.0354156494140625,-0.0301361083984375,-0.0276336669921875,0.054093186301578444,0
0.00506591796875,0.0135498046875,-0.0393524169921875,0.0419270015033571,0
-0.0322265625,-0.0098876953125,-0.034027099609375,0.047897404491115896,0
-0.0258331298828125,0.0977020263671875,-0.009521484375,0.10150711906314862,0
-0.01837158203125,-0.0301361083984375,0.002197265625,0.03536280577047203,0
-0.021575927734375,-0.0162811279296875,-0.01165771484375,0.029436339779938873,0
-0.0013275146484375,0.1435089111328125,-0.00738525390625,0.14370494718320267,0
-0.0013275146484375,-0.1899261474609375,0.005401611328125,0.19000758192618453,0
-0.0141143798828125,0.07000732421875,-9.918212890625E-4,0.0714228595984154,0
0.015716552734375,0.019927978515625,0.0192413330078125,0.0318490698999066,0
0.006134033203125,-0.181396484375,0.0107269287109375,0.18181688014735098,0
-0.019439697265625,0.2787933349609375,-0.0031280517578125,0.2794877638756663,0
0.01251220703125,-0.1153564453125,0.0203094482421875,0.11779702240647154,0
-0.0354156494140625,-0.0770111083984375,0.01605224609375,0.08627081571904828,0
-0.0364837646484375,0.238311767578125,0.005401611328125,0.24114879442798998,0
-0.0130462646484375,-0.1792755126953125,0.026702880859375,0.18172220095418776,0
-0.03009033203125,0.0710601806640625,0.03948974609375,0.0866857393364613,0
0.001861572265625,0.0849151611328125,0.0330963134765625,0.09115599819677556,0
0.006134033203125,-0.1409149169921875,0.0309600830078125,0.14440625656148964,0
-2.593994140625E-4,0.099822998046875,0.03521728515625,0.10585346192212634,0
7.9345703125E-4,-0.0535736083984375,0.0288238525390625,0.06084057499796655,0
-2.593994140625E-4,0.019927978515625,0.037353515625,0.04233765162739127,0
-2.593994140625E-4,0.04656982421875,0.0511932373046875,0.0692066713659553,0
-0.0130462646484375,-0.0546417236328125,0.069305419921875,0.08921414805617525,0
0.0210418701171875,-0.071685791015625,0.0650482177734375,0.09905999983376237,0
-0.021575927734375,0.0412445068359375,0.037353515625,0.05968178223952253,0
0.0029296875,0.0604095458984375,0.0320281982421875,0.06843757584210552,0
0.05938720703125,-0.26129150390625,0.057586669921875,0.27407355750829626,0
-0.040740966796875,0.045501708984375,0.0511932373046875,0.07969303257987408,0
-2.593994140625E-4,0.250030517578125,0.03948974609375,0.2531299410480513,0
0.02850341796875,-0.229339599609375,0.0650482177734375,0.2400840840630429,0
-0.021575927734375,-0.032257080078125,0.048004150390625,0.061728747982534714,0
-0.0162506103515625,0.2308502197265625,0.014984130859375,0.23190608112382774,0
7.9345703125E-4,-0.169677734375,0.0448150634765625,0.17549801432239004,0
-0.005584716796875,-0.036529541015625,0.037353515625,0.052544091561855424,0
-0.017303466796875,0.2308502197265625,0.0320281982421875,0.2337028870032067,0
0.0082550048828125,-0.228271484375,0.038421630859375,0.23162952618842703,0
-0.007720947265625,0.035919189453125,0.0437469482421875,0.05712789754710636,0
0.0071868896484375,0.101959228515625,0.034149169921875,0.10776595690974654,0
0.0029296875,-0.0855255126953125,0.026702880859375,0.08964507926726202,0
0.01251220703125,0.1424407958984375,0.0288238525390625,0.145865520724285,0
0.027435302734375,-0.0802001953125,0.036285400390625,0.09220302297537712,0
0.0231781005859375,-0.090850830078125,0.037353515625,0.10092761169374463,0
-0.0045318603515625,0.11260986328125,0.0298919677734375,0.11659780788606665,0
7.9345703125E-4,-0.0525054931640625,0.0181732177734375,0.05556727661765185,0
-0.0013275146484375,0.0167388916015625,0.0320281982421875,0.03616294055841613,0
-0.00665283203125,0.05401611328125,0.02777099609375,0.061100154599542024,0
-0.0130462646484375,-0.0194854736328125,0.0298919677734375,0.03799234714176432,0
-0.0013275146484375,0.05828857421875,0.0203094482421875,0.06173972681749277,0
0.0103912353515625,0.0028839111328125,0.012847900390625,0.016773886252176153,0
-0.0119781494140625,0.02099609375,0.002197265625,0.024272206170251633,0
-0.0151824951171875,0.0625457763671875,-0.01165771484375,0.06540936182792063,0
0.00506591796875,-0.05889892578125,6.103515625E-5,0.05911641657223143,0
-0.007720947265625,0.0412445068359375,0.0224456787109375,0.0475870871520089,0
0.02423095703125,0.0146026611328125,0.0107269287109375,0.030256304969040287,0
-0.0034637451171875,-0.0450439453125,0.0107269287109375,0.04643297900331042,0
-0.0087890625,0.0146026611328125,0.002197265625,0.017184682365859013,0
-0.033294677734375,0.0039520263671875,0.0181732177734375,0.0381368577898549,0
