gyro_x,gyro_y,gyro_z,gyro_angvel,label
0.0099029541015625,-0.1160736083984375,0.0026702880859375,0.11652588341237055,0
0.0088348388671875,-0.0020904541015625,-0.0015869140625,0.009216434907363402,0
0.0663604736328125,0.01495361328125,0.0143890380859375,0.0695296154740909,0
0.069549560546875,-0.202362060546875,0.0239715576171875,0.2153187880693059,0
0.00244140625,0.0096282958984375,0.0048065185546875,0.011034816129050934,0
-0.0028839111328125,0.10870361328125,-0.002655029296875,0.10877426931213455,0
0.001373291015625,-0.1032867431640625,0.0101318359375,0.10379157644586108,0
-0.006072998046875,-0.0138092041015625,0.006927490234375,0.016600166991428706,0
-0.006072998046875,0.08526611328125,0.006927490234375,0.08576235479693678,0
0.0088348388671875,-0.052154541015625,5.340576171875E-4,0.05290024332550989,0
-7.476806640625E-4,4.57763671875E-5,0.0048065185546875,0.00486453928627995,0
0.0077667236328125,-0.0798492431640625,0.017578125,0.08212925245232477,0
-0.0156707763671875,-0.030853271484375,-0.002655029296875,0.034706581131050844,0
-0.0113983154296875,0.1619720458984375,-0.012237548828125,0.1628331134888753,0
-0.017791748046875,-0.1352386474609375,-0.0015869140625,0.13641318250766302,0
0.0557098388671875,0.00537109375,5.340576171875E-4,0.05597070673323466,0
-0.019927978515625,0.0820770263671875,-0.0218353271484375,0.08723843245197896,0
0.0194854736328125,-0.0670623779296875,-0.01544189453125,0.07152271193819147,0
-0.0124664306640625,-0.02978515625,0.009063720703125,0.03353682243926888,0
0.005645751953125,0.0575714111328125,0.0122528076171875,0.05913098332890592,0
-0.0018157958984375,-0.0351104736328125,-5.18798828125E-4,0.03516122332469774,0
-0.0039520263671875,-0.0212554931640625,-0.0101165771484375,0.02386963835617835,0
-0.0124664306640625,-0.003143310546875,-0.0015869140625,0.012954172723016072,0
0.0099029541015625,0.0096282958984375,0.0101318359375,0.0171297017285748,0
-0.0113983154296875,-0.0244598388671875,-0.0015869140625,0.027031899827522087,0
0.001373291015625,0.0319976806640625,-0.002655029296875,0.03213699856334098,0
0.001373291015625,-0.0138092041015625,0.0037384033203125,0.01437204597534848,0
-0.0028839111328125,-0.00421142578125,0.0026702880859375,0.00576051117478621,0
-7.476806640625E-4,0.0096282958984375,-0.004791259765625,0.010780504553358264,0
0.00457763671875,0.0139007568359375,5.340576171875E-4,0.014644828987707142,0
0.00244140625,4.57763671875E-5,0.0026702880859375,0.003618424852782175,0
0.029083251953125,0.027740478515625,0.0026702880859375,0.04028026974719386,0
0.0099029541015625,-0.0489501953125,0.009063720703125,0.05075767088878101,0
0.01416015625,0.00750732421875,0.0101318359375,0.018961119202575066,0
0.003509521484375,0.0011138916015625,0.0026702880859375,0.004548399060243168,0
-0.0050048828125,0.0085601806640625,-0.0069122314453125,0.012087368966065954,0
0.0099029541015625,0.0128326416015625,-5.18798828125E-4,0.01621771693660578,0
0.005645751953125,-0.0361785888671875,0.0058746337890625,0.03708471558058377,0
0.024810791015625,0.0224151611328125,0.0016021728515625,0.0334750915947552,0
0.003509521484375,-0.016998291015625,0.0037384033203125,0.017754838717557838,0
-0.039093017578125,0.0245513916015625,-0.0090484619140625,0.047041572209558465,0
-0.0146026611328125,0.05224609375,-0.0058441162109375,0.054562310421943136,0
-0.0252532958984375,-0.106475830078125,-0.0058441162109375,0.10958551473094759,0
-0.01885986328125,0.0341339111328125,-0.026092529296875,0.04692161993493472,0
-0.0050048828125,0.0362701416015625,-0.0314178466796875,0.04824575746894854,0
-0.0028839111328125,-0.0894317626953125,-0.0101165771484375,0.09004833288525077,0
-0.0146026611328125,0.049041748046875,0.011199951171875,0.052381004857727814,0
-0.0146026611328125,0.03839111328125,0.0101318359375,0.042305666176032965,0
-0.0018157958984375,-0.08624267578125,0.00799560546875,0.08663155283998142,0
-0.006072998046875,-0.028717041015625,0.0026702880859375,0.029473381014609366,0
0.0067138671875,0.0565032958984375,-0.002655029296875,0.05696268638824049,0
3.204345703125E-4,-0.038299560546875,-0.002655029296875,0.03839281439234248,0
-0.0018157958984375,0.01495361328125,-5.18798828125E-4,0.015072385913783614,0
-7.476806640625E-4,0.016021728515625,5.340576171875E-4,0.016048053730664046,0
3.204345703125E-4,-0.0436248779296875,0.0026702880859375,0.04370770059332665,0
0.00457763671875,0.025604248046875,-0.00372314453125,0.026275351209362117,0
0.00244140625,0.01708984375,-0.0069122314453125,0.018595756704972242,0
0.003509521484375,-0.0255279541015625,-0.0015869140625,0.02581688358230969,0
-7.476806640625E-4,0.02667236328125,0.0026702880859375,0.026816122535599476,0
-7.476806640625E-4,-0.016998291015625,-0.0015869140625,0.017088569866113748,0
0.0067138671875,0.0021820068359375,-0.0058441162109375,0.009164652788317167,0
-0.0028839111328125,0.0011138916015625,-0.00372314453125,0.004839370116303168,0
0.003509521484375,4.57763671875E-5,0.0016021728515625,0.0038582112916954797,0
-0.0018157958984375,-0.005279541015625,5.340576171875E-4,0.005608554681816438,0
-0.0028839111328125,0.00750732421875,0.0016021728515625,0.00820023281338244,0
0.001373291015625,-0.005279541015625,5.340576171875E-4,0.005481304506022174,0
0.001373291015625,-0.003143310546875,-0.0015869140625,0.0037795007143076728,0
-0.0039520263671875,0.0085601806640625,-0.0015869140625,0.009561040824622337,0
0.0077667236328125,-0.003143310546875,-5.18798828125E-4,0.00839473343273315,0
-0.0050048828125,-0.02020263671875,5.340576171875E-4,0.02082019692258264,0
0.003509521484375,0.0202789306640625,-0.002655029296875,0.020750926497253287,0
-0.0018157958984375,0.0011138916015625,-5.18798828125E-4,0.002192492068144784,0
3.204345703125E-4,-0.0138092041015625,0.0016021728515625,0.0139055296223749,0
-7.476806640625E-4,0.0213470458984375,0.0026702880859375,0.021526398524307544,0
3.204345703125E-4,-0.0095367431640625,5.340576171875E-4,0.00955705844021162,0
-7.476806640625E-4,-0.0106048583984375,5.340576171875E-4,0.010644588557797775,0
0.00244140625,0.0117645263671875,-0.004791259765625,0.012935250877485364,0
-0.0028839111328125,-0.0010223388671875,-5.18798828125E-4,0.0031034291365175347,0
3.204345703125E-4,-0.00634765625,5.340576171875E-4,0.006378137323740483,0
0.003509521484375,0.0128326416015625,-5.18798828125E-4,0.013313999539864275,0
-0.0028839111328125,-0.016998291015625,-5.18798828125E-4,0.017248999770940382,0
0.00457763671875,0.01495361328125,0.0016021728515625,0.015720441022449357,0
-0.0050048828125,-0.007415771484375,-0.0015869140625,0.0090862981965753,0
0.003509521484375,4.57763671875E-5,-5.18798828125E-4,0.003547955573164137,0
-0.0018157958984375,-0.00634765625,-0.002655029296875,0.007116110958958627,0
-0.0018157958984375,0.0096282958984375,-5.18798828125E-4,0.009811745455152957,0
0.001373291015625,-0.019134521484375,-5.18798828125E-4,0.019190752795908466,0
-0.0039520263671875,0.01708984375,0.0037384033203125,0.017934796658777116,0
3.204345703125E-4,-0.01593017578125,-5.18798828125E-4,0.01594184214447751,0
0.00244140625,0.00537109375,5.340576171875E-4,0.005924046766130743,0
0.00244140625,0.01495361328125,5.340576171875E-4,0.015161010262551485,0
0.001373291015625,-0.0138092041015625,-5.18798828125E-4,0.013887015458919558,0
0.00244140625,0.0011138916015625,-0.00372314453125,0.00458944704492244,0
3.204345703125E-4,0.006439208984375,-0.0015869140625,0.006639607435689803,0
0.0067138671875,-0.01593017578125,-0.004791259765625,0.017938859584003944,0
3.204345703125E-4,0.00323486328125,-0.0079803466796875,0.00861701525414863,0
0.01629638671875,-0.0020904541015625,-0.01544189453125,0.022547601317036797,0
-0.0028839111328125,-0.00421142578125,-0.004791259765625,0.0070006585886353565,0
0.00457763671875,0.0106964111328125,0.0016021728515625,0.011744570102702244,0
-0.0018157958984375,-0.005279541015625,0.0026702880859375,0.006188788778294899,0
-0.0028839111328125,0.00750732421875,0.0037384033203125,0.008868625583071691,0
0.00244140625,-0.0010223388671875,-5.18798828125E-4,0.002697182504200477,0
-0.006072998046875,-0.01806640625,-0.00372314453125,0.019420044934756547,0
-0.019927978515625,-0.0329742431640625,-0.002655029296875,0.03861960927468323,0
-0.062530517578125,-0.063873291015625,-0.0111846923828125,0.0900830743117322,0
0.0567779541015625,-0.00634765625,-0.0015869140625,0.05715371473551883,0
0.00244140625,0.049041748046875,0.011199951171875,0.050363602156945554,0
0.00244140625,0.0916595458984375,-5.18798828125E-4,0.09169352196861769,0
0.0216217041015625,0.01708984375,0.0058746337890625,0.028179286183481183,0
0.0067138671875,-0.05322265625,0.009063720703125,0.05440476251121137,0
-0.0241851806640625,-0.0255279541015625,-0.004791259765625,0.03549021801153835,0
0.0184173583984375,0.117218017578125,0.0016021728515625,0.11866688541108847,0
-0.010345458984375,-0.1256561279296875,0.0058746337890625,0.12621807449820716,0
0.003509521484375,0.03839111328125,0.00799560546875,0.039371614480929844,0
-0.008209228515625,0.0596923828125,0.0026702880859375,0.06031336864342511,0
0.003509521484375,-0.0819854736328125,0.0016021728515625,0.08207619378170608,0
0.001373291015625,0.0447845458984375,0.0016021728515625,0.04483423287387814,0
-0.0039520263671875,0.018157958984375,5.340576171875E-4,0.01859072899118445,0
0.00457763671875,-0.03936767578125,0.0016021728515625,0.039665294807838626,0
-0.0050048828125,0.0330657958984375,-0.002655029296875,0.033547651049384196,0
0.00244140625,-0.0127410888671875,-5.18798828125E-4,0.012983256995961074,0
0.00244140625,-0.0585479736328125,0.0037384033203125,0.058717981405795705,0
0.026947021484375,0.0831298828125,-0.0015869140625,0.08740273267776649,0
0.02587890625,0.01708984375,-5.18798828125E-4,0.03101692602950471,0
-0.017791748046875,-0.0841064453125,-0.0101165771484375,0.08656087785407633,0
-0.0018157958984375,0.1044464111328125,-0.03460693359375,0.11004539865906027,0
0.015228271484375,-0.0819854736328125,0.0048065185546875,0.08352616811404064,0
-0.02099609375,-0.0351104736328125,0.0474090576171875,0.06261948622936006,0
-0.0124664306640625,0.1491851806640625,0.0016021728515625,0.14971371674338035,0
0.0216217041015625,-0.07452392578125,-0.0335540771484375,0.08454105331368943,0
-0.0241851806640625,-0.00848388671875,-0.00372314453125,0.025899056021610172,0
-0.0124664306640625,0.095916748046875,0.017578125,0.09830780705470549,0
0.0099029541015625,-0.120330810546875,0.0037384033203125,0.12079548057022209,0
0.005645751953125,0.027740478515625,-0.0111846923828125,0.030438561186268493,0
0.013092041015625,0.072479248046875,-0.0069122314453125,0.07397581955577652,0
0.01629638671875,-0.1032867431640625,0.0016021728515625,0.10457672059962651,0
0.0099029541015625,0.025604248046875,-0.0069122314453125,0.028309450039467787,0
0.0099029541015625,0.0447845458984375,-0.0079803466796875,0.04655545064108936,0
0.01416015625,-0.04150390625,0.0058746337890625,0.04424472376666847,0
0.00457763671875,0.0799407958984375,-0.0015869140625,0.08008747656810178,0
-7.476806640625E-4,0.00750732421875,-0.004791259765625,0.008937287812448482,0
0.0322723388671875,-0.014862060546875,-5.18798828125E-4,0.035533840939048836,0
0.0088348388671875,0.0682220458984375,-0.004791259765625,0.06895837943658027,0
0.0088348388671875,0.0117645263671875,-0.004791259765625,0.015473029069807688,0
0.00244140625,0.004302978515625,-0.00372314453125,0.006191760152335212,0
0.015228271484375,0.0437164306640625,-0.0079803466796875,0.046975658542862515,0
-7.476806640625E-4,0.00323486328125,-0.0015869140625,0.003679899871674868,0
-0.00714111328125,-0.014862060546875,0.0058746337890625,0.01750393283665755,0
0.003509521484375,0.018157958984375,0.0016021728515625,0.01856327485584961,0
0.0120391845703125,0.0447845458984375,-0.004791259765625,0.04662138657943372,0
0.015228271484375,0.2759552001953125,-0.0058441162109375,0.27643683991379253,0
-0.0380401611328125,-0.08837890625,0.0058746337890625,0.09639707594689904,0
0.0109710693359375,-0.4686737060546875,0.0048065185546875,0.46882673743081904,0
-0.0018157958984375,0.224822998046875,-0.002655029296875,0.22484600673816116,0
-0.0220489501953125,0.1715545654296875,0.0026702880859375,0.17298628721070985,0
0.029083251953125,-0.2843780517578125,-0.002655029296875,0.28587368022660864,0
-0.0156707763671875,0.11083984375,-0.0015869140625,0.11195339427956875,0
-7.476806640625E-4,0.098052978515625,-0.004791259765625,0.09817281595382057,0
0.0099029541015625,-0.1693267822265625,-0.002655029296875,0.16963689710586738,0
-0.0039520263671875,0.072479248046875,-0.00372314453125,0.07268233427077006,0
-0.0018157958984375,0.0565032958984375,-0.0015869140625,0.056554733297690715,0
0.00457763671875,-0.1000823974609375,-5.18798828125E-4,0.10018837353546559,0
0.001373291015625,0.0469207763671875,-0.002655029296875,0.04701589479825394,0
-0.006072998046875,0.0117645263671875,0.0016021728515625,0.013336129264815987,0
0.0109710693359375,-0.0596160888671875,-0.0015869140625,0.06063794777559763,0
-0.0039520263671875,0.0479888916015625,-0.00372314453125,0.04829507257219972,0
0.0067138671875,0.00750732421875,-0.002655029296875,0.010415618565600606,0
0.0088348388671875,-0.02020263671875,-0.00372314453125,0.022362082045273186,0
0.0333404541015625,0.1619720458984375,-5.18798828125E-4,0.16536867503988778,0
-0.0156707763671875,0.144927978515625,0.0037384033203125,0.14582067016702807,0
-0.008209228515625,0.0011138916015625,0.0026702880859375,0.008704172894863811,0
-0.017791748046875,-0.01806640625,0.0058746337890625,0.026027920691232987,0
0.00244140625,-0.313140869140625,0.0037384033203125,0.3131727000394653,0
0.005645751953125,-0.1171417236328125,-0.0015869140625,0.11728843176982202,0
-0.0146026611328125,0.2834014892578125,-0.00372314453125,0.2838018739030917,0
-7.476806640625E-4,-0.1490936279296875,0.0016021728515625,0.1491041108536508,0
0.01416015625,-0.0958251953125,0.0026702880859375,0.0969025723093308,0
-0.017791748046875,0.173675537109375,-0.00372314453125,0.1746241686995072,0
0.0067138671875,-0.0659942626953125,-0.0015869140625,0.06635387718551995,0
0.0088348388671875,-0.0564117431640625,-0.0015869140625,0.05712142716055928,0
-0.02099609375,0.1065673828125,-0.0015869140625,0.10862762691187942,0
0.0216217041015625,-0.0585479736328125,-0.002655029296875,0.06246929233896681,0
-0.010345458984375,-0.0244598388671875,-5.18798828125E-4,0.026562782068718357,0
0.003509521484375,0.060760498046875,0.0016021728515625,0.0608828532659227,0
0.0088348388671875,-0.054290771484375,-0.0015869140625,0.05502781607895731,0
-0.006072998046875,0.0234832763671875,-5.18798828125E-4,0.024261383440338236,0
0.01629638671875,0.15130615234375,-0.0058441162109375,0.15229339332828618,0
-0.0124664306640625,-0.0702667236328125,5.340576171875E-4,0.0713660252580344,0
0.02801513671875,0.074615478515625,0.0016021728515625,0.07971752929771617,0
0.001373291015625,0.32708740234375,-0.0015869140625,0.32709413476312527,0
0.00457763671875,-0.1160736083984375,0.0016021728515625,0.1161748866253329,0
0.00457763671875,-0.141632080078125,0.0037384033203125,0.14175534037407755,0
-0.0113983154296875,0.1300048828125,-0.0015869140625,0.13051325390920368,0
0.0067138671875,-0.1352386474609375,0.0016021728515625,0.13541467696494872,0
0.003509521484375,-0.0478973388671875,5.340576171875E-4,0.04802871046723987,0
-0.0135345458984375,0.1033782958984375,0.0016021728515625,0.10427282941106036,0
0.013092041015625,-0.1011505126953125,-0.0015869140625,0.1020065980842472,0
-0.008209228515625,-0.0010223388671875,-0.0015869140625,0.008423473501048906,0
0.001373291015625,0.0671539306640625,5.340576171875E-4,0.06717009415942325,0
0.005645751953125,-0.0937042236328125,5.340576171875E-4,0.09387566915491376,0
-0.00927734375,0.0330657958984375,-5.18798828125E-4,0.03434654447942113,0
0.00457763671875,-0.052154541015625,5.340576171875E-4,0.05235777042634488,0
-0.0252532958984375,-0.1725311279296875,0.0048065185546875,0.17443572363206108,0
0.0067138671875,0.074615478515625,-5.18798828125E-4,0.07491872128481071,0
-0.0050048828125,0.027740478515625,0.0026702880859375,0.02831454464943079,0
-0.0028839111328125,-0.1011505126953125,0.0058746337890625,0.10136199723812732,0
0.01416015625,0.06182861328125,-0.004791259765625,0.06361009051595883,0
-0.0124664306640625,0.01708984375,-0.00372314453125,0.021478744332522528,0
0.0077667236328125,-0.0606689453125,0.0026702880859375,0.06122232729798422,0
-7.476806640625E-4,0.05224609375,-0.0015869140625,0.052275535719406664,0
0.005645751953125,0.267425537109375,-0.0069122314453125,0.26757442209020554,0
0.0109710693359375,-0.040435791015625,-5.18798828125E-4,0.04190091537970634,0
0.00244140625,-0.463348388671875,0.006927490234375,0.4634066031793762,0
-0.0124664306640625,0.0596923828125,-0.004791259765625,0.061168199495143065,0
-0.0252532958984375,0.3313446044921875,-0.0111846923828125,0.33249371907378394,0
0.0109710693359375,-0.176788330078125,0.0016021728515625,0.17713566826597152,0
0.0109710693359375,-0.12884521484375,0.0101318359375,0.12970777867950117,0
-0.0156707763671875,0.2162933349609375,0.0016021728515625,0.21686619593270176,0
0.0099029541015625,-0.099029541015625,5.340576171875E-4,0.09952488990821082,0
0.0088348388671875,-0.0606689453125,0.0016021728515625,0.06132978282194196,0
-0.0146026611328125,0.1246795654296875,0.0016021728515625,0.12554201968162598,0
0.01416015625,-0.0798492431640625,-5.18798828125E-4,0.08109673736422483,0
-0.0039520263671875,-0.01806640625,-5.18798828125E-4,0.01850088374702809,0
-0.0039520263671875,0.0799407958984375,-0.0015869140625,0.08005415453007013,0
0.0067138671875,-0.052154541015625,0.0016021728515625,0.05260930639162793,0
0.0067138671875,0.025604248046875,5.340576171875E-4,0.026475247840119787,0
0.0088348388671875,0.133209228515625,-5.18798828125E-4,0.13350289169812476,0
-0.0241851806640625,-0.1427001953125,0.0016021728515625,0.14474403498529836,0
0.0088348388671875,-0.08837890625,5.340576171875E-4,0.08882100351433737,0
-0.00714111328125,0.1417236328125,0.0037384033203125,0.141952665546841,0
-0.0039520263671875,-0.0670623779296875,0.0037384033203125,0.06728266273993996,0
0.0099029541015625,-0.0244598388671875,0.0026702880859375,0.026523247459697117,0
-0.010345458984375,0.084197998046875,0.0037384033203125,0.08491352693231081,0
-0.0028839111328125,-0.0244598388671875,0.0037384033203125,0.024911369296288385,0
3.204345703125E-4,4.57763671875E-5,0.0048065185546875,0.004817405360378079,0
-0.0124664306640625,0.05010986328125,0.00799560546875,0.05225265541940763,0
3.204345703125E-4,-0.0351104736328125,0.0122528076171875,0.03718843007627616,0
-0.0050048828125,0.0224151611328125,0.00799560546875,0.024319087305832654,0
-0.0167236328125,0.0767364501953125,-0.002655029296875,0.07858251627170174,0
-0.0028839111328125,-0.0340423583984375,-5.18798828125E-4,0.034168234677455785,0
-0.0167236328125,-0.0553436279296875,0.0122528076171875,0.0590993091446154,0
0.00457763671875,-0.0553436279296875,0.0133209228515625,0.0571079582542207,0
0.005645751953125,-0.0340423583984375,0.0016021728515625,0.03454451676156676,0
-0.0018157958984375,-0.05108642578125,0.0026702880859375,0.05118838200519574,0
0.01629638671875,-0.0468292236328125,-0.00372314453125,0.04972333668751116,0
-0.0635986328125,0.0341339111328125,-0.002655029296875,0.07222852044316848,0
-0.031646728515625,-0.2055511474609375,0.0016021728515625,0.20797922157296395,0
0.0897979736328125,0.1715545654296875,0.011199951171875,0.19395897477193624,0
-0.0699920654296875,0.0895233154296875,-0.0015869140625,0.11364783994814305,0
0.0344085693359375,-0.19915771484375,-0.01544189453125,0.202697304205667,0
-0.00714111328125,0.107635498046875,0.0058746337890625,0.10803197332665025,0
-0.0113983154296875,0.0213470458984375,0.0048065185546875,0.024672263451925212,0
0.01416015625,-0.1075439453125,-0.0207672119140625,0.11044223507827965,0
-0.006072998046875,0.0139007568359375,-0.049530029296875,0.05180092806155606,0
0.0120391845703125,0.0703582763671875,-0.026092529296875,0.07600032304923358,0
-0.0039520263671875,-0.0713348388671875,0.011199951171875,0.0723167798983537,0
-0.0028839111328125,-0.007415771484375,0.0133209228515625,0.015516365416801361,0
0.003509521484375,0.0692901611328125,0.0037384033203125,0.06947962888678762,0
-0.006072998046875,-0.052154541015625,5.340576171875E-4,0.05250964360349758,0
0.00457763671875,0.027740478515625,0.0058746337890625,0.02872281720793236,0
-0.00714111328125,0.0234832763671875,0.0101318359375,0.02655398025339645,0
3.204345703125E-4,-0.040435791015625,0.006927490234375,0.04102616231528988,0
0.005645751953125,0.0234832763671875,-0.0015869140625,0.024204484714525156,0
-0.008209228515625,0.0085601806640625,-0.002655029296875,0.01215390087134187,0
0.0067138671875,-0.0116729736328125,0.0026702880859375,0.013728246956753974,0
3.204345703125E-4,0.0096282958984375,0.0026702880859375,0.009996859441025442,0
-0.00714111328125,0.0096282958984375,0.0016021728515625,0.01209407039213008,0
0.0120391845703125,-0.00421142578125,-0.002655029296875,0.013027941233989824,0
-0.006072998046875,0.0021820068359375,0.0016021728515625,0.006649016239693618,0
0.00244140625,-0.0010223388671875,5.340576171875E-4,0.002700159027793969,0
0.00457763671875,0.0011138916015625,-0.00372314453125,0.006004774569411954,0
-0.0050048828125,-0.00421142578125,5.340576171875E-4,0.006562787259717556,0
0.0077667236328125,0.0011138916015625,0.0016021728515625,0.008008102667598835,0
-0.006072998046875,-0.0010223388671875,5.340576171875E-4,0.006181561257092401,0
-0.0018157958984375,0.006439208984375,0.0016021728515625,0.006879497433353841,0
0.0067138671875,-0.003143310546875,-5.18798828125E-4,0.007431390585183142,0
-0.010345458984375,4.57763671875E-5,0.0016021728515625,0.010468886040045627,0
0.0109710693359375,-0.0010223388671875,-0.0015869140625,0.01113228796676903,0
-0.0018157958984375,-0.0223236083984375,5.340576171875E-4,0.02240370112749337,0
0.003509521484375,0.0096282958984375,0.0026702880859375,0.010590149263303981,0
0.00457763671875,-0.003143310546875,5.340576171875E-4,0.005578564032205767,0
0.00457763671875,-0.01593017578125,-0.0058441162109375,0.01757495242204982,0
0.0109710693359375,0.025604248046875,-0.0090484619140625,0.029288505312325002,0
0.00457763671875,0.0234832763671875,-0.004791259765625,0.024400311412116283,0
-0.006072998046875,-0.02978515625,0.0016021728515625,0.03044016747589516,0
-0.0124664306640625,-0.04150390625,0.0048065185546875,0.04360147644435016,0
-0.03057861328125,-0.026580810546875,0.00799560546875,0.041297951357724814,0
0.013092041015625,0.0245513916015625,-5.18798828125E-4,0.02782878940507734,0
0.015228271484375,0.0586395263671875,-0.00372314453125,0.06069889710835349,0
-0.0167236328125,-0.09796142578125,-0.004791259765625,0.09949410538159724,0
0.0216217041015625,0.0352020263671875,-5.18798828125E-4,0.041315250221144156,0
-0.010345458984375,0.0788726806640625,0.0048065185546875,0.0796933554152987,0
0.00244140625,-0.07452392578125,-0.0079803466796875,0.07498974537531647,0
-0.0135345458984375,0.025604248046875,-0.0186309814453125,0.03443653467377913,0
-0.0018157958984375,0.029876708984375,-5.18798828125E-4,0.029936332552700576,0
0.03546142578125,-0.02764892578125,0.0101318359375,0.046093707973655036,0
-0.0146026611328125,0.0352020263671875,-0.004791259765625,0.038410630594376,0
0.0077667236328125,-0.007415771484375,-0.0079803466796875,0.013379147798905464,0
0.00457763671875,-0.06280517578125,0.00799560546875,0.06347735477833386,0
0.0312042236328125,-0.7115478515625,0.0165252685546875,0.7124234226473332,0
3.204345703125E-4,-0.0713348388671875,-0.002655029296875,0.07138495006014027,0
-0.0806427001953125,1.2314910888671875,-0.01544189453125,1.2342252627299428,0
0.0067138671875,-0.14056396484375,-5.18798828125E-4,0.14072516966566584,0
0.062103271484375,-0.67852783203125,0.009063720703125,0.6814242336482277,0
-0.031646728515625,0.497528076171875,-0.00372314453125,0.4985474539201151,0
-0.008209228515625,0.2290802001953125,-0.0015869140625,0.22923273730117164,0
0.0226898193359375,-0.46441650390625,0.0058746337890625,0.46500755727639204,0
-0.0273895263671875,0.3537139892578125,-0.00372314453125,0.35479238176220096,0
0.0067138671875,0.1012420654296875,-0.0015869140625,0.10147684524719063,0
0.040802001953125,-0.7041015625,0.0048065185546875,0.7052991679414777,0
3.204345703125E-4,0.1374664306640625,-5.18798828125E-4,0.1374677830986425,0
-0.03271484375,0.48687744140625,-5.18798828125E-4,0.48797558658616047,0
0.0184173583984375,-0.4196624755859375,0.0048065185546875,0.42009391226951937,0
0.0120391845703125,-0.073455810546875,0.006927490234375,0.07475752931420222,0
-0.0263214111328125,0.380340576171875,0.0122528076171875,0.3814471154187435,0
0.0184173583984375,-0.214080810546875,0.0048065185546875,0.21492532460229072,0
3.204345703125E-4,-0.1118011474609375,-0.0058441162109375,0.11195424487791021,0
-0.017791748046875,0.2407989501953125,-0.0069122314453125,0.2415542582056496,0
0.0067138671875,-0.1363067626953125,0.0016021728515625,0.13648141458430854,0
-0.0987548828125,-0.0926361083984375,-0.014373779296875,0.1361638020539708,0
0.059967041015625,0.2152252197265625,0.011199951171875,0.22370377761845942,0
0.03759765625,-0.2641448974609375,0.03143310546875,0.26865247203320486,0
-0.0582733154296875,0.1129608154296875,-0.0133056640625,0.12780049221287015,0
0.02587890625,0.1885986328125,-0.028228759765625,0.19244746027252702,0
0.013092041015625,-0.202362060546875,-0.0218353271484375,0.20395731562856775,0
-0.0018157958984375,0.0011138916015625,-0.0207672119140625,0.020876181641487825,0
0.0067138671875,0.1278839111328125,5.340576171875E-4,0.12806114147849437,0
0.001373291015625,-0.1277923583984375,0.0101318359375,0.12820072890866382,0
3.204345703125E-4,0.0479888916015625,0.0101318359375,0.04904783884051145,0
-0.0039520263671875,0.0596923828125,-5.18798828125E-4,0.05982531429474529,0
0.01416015625,-0.083038330078125,-0.002655029296875,0.08427884353593919,0
-0.0146026611328125,0.05010986328125,0.009063720703125,0.0529753446728719,0
0.0099029541015625,-0.003143310546875,0.00799560546875,0.01311024820297671,0
-7.476806640625E-4,-0.0436248779296875,0.0016021728515625,0.043660691229088805,0
-0.006072998046875,0.0469207763671875,0.0026702880859375,0.04738745613175356,0
0.0067138671875,-0.0233917236328125,0.0026702880859375,0.024482221827014962,0
-0.00927734375,-0.0116729736328125,0.0016021728515625,0.014996478864529627,0
0.00457763671875,0.025604248046875,-0.0015869140625,0.026058598815295323,0
-0.0018157958984375,-0.0255279541015625,0.0037384033203125,0.025864052558359597,0
-0.00714111328125,0.0021820068359375,0.0048065185546875,0.008880274395776199,0
-7.476806640625E-4,0.01708984375,0.0048065185546875,0.01776863546790755,0
-0.0135345458984375,-0.0106048583984375,0.00799560546875,0.018962506720888107,0
0.00244140625,0.0096282958984375,0.0037384033203125,0.01061320902322813,0
-7.476806640625E-4,-0.00848388671875,-5.18798828125E-4,0.008532556032986801,0
0.003509521484375,-0.0095367431640625,-0.00372314453125,0.010822569770029634,0
0.005645751953125,0.00323486328125,-0.00372314453125,0.00749670999606968,0
-0.0039520263671875,0.0011138916015625,-0.00372314453125,0.005542659299249186,0
0.003509521484375,0.0021820068359375,-0.002655029296875,0.004911931946661338,0
3.204345703125E-4,-0.0010223388671875,0.0026702880859375,0.002877202379936687,0
-0.0039520263671875,0.00537109375,0.0026702880859375,0.007183146868896253,0
0.0088348388671875,-0.00634765625,-0.00372314453125,0.011498213899467506,0
-0.0124664306640625,0.0096282958984375,0.0026702880859375,0.01597643307724368,0
0.001373291015625,-0.007415771484375,5.340576171875E-4,0.007560741528483944,0
-7.476806640625E-4,-0.0127410888671875,-5.18798828125E-4,0.012773547828267841,0
-0.006072998046875,0.004302978515625,-5.18798828125E-4,0.007460970553979004,0
0.0067138671875,0.0021820068359375,-0.00372314453125,0.007981163552016956,0
-0.010345458984375,4.57763671875E-5,5.340576171875E-4,0.01035933562597787,0
0.00244140625,0.0011138916015625,-0.0015869140625,0.0031176137059184847,0
0.003509521484375,0.00537109375,-5.18798828125E-4,0.00643696678138412,0
-0.010345458984375,-0.0106048583984375,-5.18798828125E-4,0.01482432782531335,0
-0.00714111328125,-0.0138092041015625,-0.0101165771484375,0.01854817376494364,0
-0.00714111328125,-0.005279541015625,-0.0058441162109375,0.010631215665118184,0
0.0099029541015625,0.01708984375,0.00799560546875,0.021308706346209114,0
0.0109710693359375,4.57763671875E-5,0.0048065185546875,0.011977857841296005,0
-0.00927734375,0.0096282958984375,0.006927490234375,0.015058662288227777,0
0.0077667236328125,-0.00634765625,0.0026702880859375,0.01038003729851449,0
-0.00714111328125,0.00323486328125,5.340576171875E-4,0.007857802293421529,0
0.005645751953125,-0.007415771484375,-0.002655029296875,0.00969109706854434,0
0.0067138671875,-0.005279541015625,-0.0015869140625,0.008687224078427818,0
-0.008209228515625,0.0106964111328125,0.0016021728515625,0.013578350481195782,0
0.0067138671875,-0.0095367431640625,-0.002655029296875,0.011961382167456508,0
-7.476806640625E-4,0.006439208984375,-0.00372314453125,0.007475576494187284,0
0.001373291015625,-0.0116729736328125,-0.004791259765625,0.012692533702442122,0
0.0077667236328125,-0.02020263671875,-0.00372314453125,0.02196202020714057,0
-0.00714111328125,0.01922607421875,5.340576171875E-4,0.0205163994477346,0
0.00457763671875,0.0021820068359375,-0.0015869140625,0.005313587112552734,0
0.005645751953125,-0.019134521484375,-5.18798828125E-4,0.01995679282290336,0
-0.0018157958984375,0.0139007568359375,-5.18798828125E-4,0.014028446370881896,0
0.00244140625,4.57763671875E-5,-0.002655029296875,0.0036071790253044697,0
0.00244140625,-0.02764892578125,-0.0069122314453125,0.028604239281759914,0
-7.476806640625E-4,0.01922607421875,-0.0058441162109375,0.020108571568543572,0
0.005645751953125,-0.00634765625,-5.18798828125E-4,0.008510958066424877,0
-7.476806640625E-4,-0.0127410888671875,0.0037384033203125,0.013299249275139771,0
0.00244140625,0.0202789306640625,-5.18798828125E-4,0.020431951585187777,0
-0.0018157958984375,-0.0020904541015625,-5.18798828125E-4,0.0028171377885339226,0
0.003509521484375,-0.005279541015625,-0.00372314453125,0.007352013301506815,0
0.0067138671875,0.0085601806640625,-0.00372314453125,0.011498456888354864,0
-0.006072998046875,-0.00634765625,0.0037384033203125,0.00954723543916432,0
0.001373291015625,0.004302978515625,0.0048065185546875,0.006595769321017972,0
-0.00714111328125,0.0096282958984375,5.340576171875E-4,0.011999366580865405,0
-7.476806640625E-4,-0.0095367431640625,-0.0058441162109375,0.011209914845334385,0
0.005645751953125,0.004302978515625,-5.18798828125E-4,0.007117534084653825,0
-0.010345458984375,0.006439208984375,0.0048065185546875,0.013099410466062828,0
0.0067138671875,-0.0095367431640625,5.340576171875E-4,0.011675217356741499,0
3.204345703125E-4,-0.003143310546875,-0.004791259765625,0.005739272571471396,0
-0.0028839111328125,0.0139007568359375,-0.0015869140625,0.014285176942396732,0
0.005645751953125,-0.02020263671875,0.0016021728515625,0.02103777562748221,0
-0.006072998046875,0.0096282958984375,-5.18798828125E-4,0.011395373596740031,0
0.00457763671875,0.01495361328125,-0.00372314453125,0.01607566836229839,0
0.00244140625,-0.0244598388671875,-0.00372314453125,0.024861737410866766,0
-0.006072998046875,0.02667236328125,0.0026702880859375,0.02748502695553018,0
0.005645751953125,-0.00421142578125,5.340576171875E-4,0.007063698731236201,0
-0.0028839111328125,-0.0116729736328125,-0.0015869140625,0.01212821310400077,0
-0.0028839111328125,0.029876708984375,-5.18798828125E-4,0.030020057218184272,0
0.00457763671875,-0.00848388671875,-0.0015869140625,0.009769820265859099,0
-0.006072998046875,-0.00848388671875,-5.18798828125E-4,0.010446376948875341,0
0.0077667236328125,0.0117645263671875,-0.0058441162109375,0.015260398779837982,0
-0.0039520263671875,-0.007415771484375,-5.18798828125E-4,0.008419105138877794,0
-0.0028839111328125,0.0096282958984375,0.0037384033203125,0.010723650717696459,0
0.0109710693359375,-0.01593017578125,-0.00372314453125,0.01969763102497478,0
-0.00927734375,0.0085601806640625,-0.0015869140625,0.012722582139597835,0
0.0077667236328125,0.00537109375,-0.00372314453125,0.0101504900995151,0
0.001373291015625,-0.02764892578125,-0.00372314453125,0.027932254299845617,0
-0.0039520263671875,0.0234832763671875,-0.0015869140625,0.023866316799758033,0
0.0067138671875,-0.0010223388671875,-0.0015869140625,0.006974201431885348,0
-0.0028839111328125,-0.02764892578125,5.340576171875E-4,0.027804051104425534,0
3.204345703125E-4,0.01922607421875,5.340576171875E-4,0.01923615932865006,0
0.001373291015625,0.00537109375,-0.0015869140625,0.005766530371605239,0
-0.006072998046875,-0.00848388671875,-0.0015869140625,0.010553479775680174,0
0.003509521484375,0.004302978515625,0.0016021728515625,0.005779214739175552,0
-0.0039520263671875,-0.0020904541015625,5.340576171875E-4,0.004502635705468598,0
-7.476806640625E-4,-0.0020904541015625,0.0016021728515625,0.002737879210709693,0
-7.476806640625E-4,0.00537109375,5.340576171875E-4,0.0054491184594554366,0
-0.00714111328125,-0.0010223388671875,5.340576171875E-4,0.007233663884469844,0
3.204345703125E-4,0.0011138916015625,0.0016021728515625,0.001977470773530355,0
-0.0028839111328125,0.0011138916015625,-0.0015869140625,0.003475053116680607,0
0.003509521484375,-0.007415771484375,-0.004791259765625,0.009500872480959632,0
0.005645751953125,-0.0020904541015625,0.0016021728515625,0.00622988533708592,0
0.00244140625,-0.014862060546875,0.0101318359375,0.01815200836384046,0
-0.008209228515625,-0.005279541015625,0.006927490234375,0.01196892255404714,0
-0.0028839111328125,0.0479888916015625,-5.18798828125E-4,0.04807826757270419,0
0.00457763671875,-0.014862060546875,5.340576171875E-4,0.015560231976622414,0
-7.476806640625E-4,-0.0255279541015625,-0.004791259765625,0.025984449910063354,0
-0.0028839111328125,0.0330657958984375,-0.0079803466796875,0.034137219203489395,0
3.204345703125E-4,-0.0329742431640625,5.340576171875E-4,0.032980124440260224,0
3.204345703125E-4,-0.003143310546875,0.0058746337890625,0.00667041240580684,0
0.001373291015625,0.0139007568359375,5.340576171875E-4,0.013978633208004833,0
0.0088348388671875,-0.007415771484375,0.0026702880859375,0.011839699446334609,0
-7.476806640625E-4,-0.0138092041015625,0.0048065185546875,0.014640893583063115,0
0.0077667236328125,0.0021820068359375,0.0048065185546875,0.009390727897086646,0
-0.0028839111328125,0.006439208984375,0.0058746337890625,0.009181049935710535,0
-0.0113983154296875,0.0213470458984375,0.0048065185546875,0.024672263451925212,0
3.204345703125E-4,0.0011138916015625,-0.0069122314453125,0.007008735718191246,0
-0.008209228515625,0.00537109375,-0.00372314453125,0.010492944586416936,0
3.204345703125E-4,-0.02020263671875,5.340576171875E-4,0.02021223456825378,0
-0.0018157958984375,0.0021820068359375,-0.0015869140625,0.0032521630984039965,0
-0.0039520263671875,0.0213470458984375,-0.00372314453125,0.022026726633740185,0
-7.476806640625E-4,-0.0106048583984375,-5.18798828125E-4,0.010643833907497204,0
-7.476806640625E-4,-0.003143310546875,-5.18798828125E-4,0.0032723966436806564,0
0.00244140625,0.0117645263671875,0.0026702880859375,0.0123083298454213,0
-0.0028839111328125,-0.00634765625,0.0048065185546875,0.008468311750678475,0
0.005645751953125,0.016021728515625,-5.18798828125E-4,0.016995277343093577,0
-0.0028839111328125,0.00323486328125,-5.18798828125E-4,0.004364680526041198,0
0.001373291015625,-0.0116729736328125,-5.18798828125E-4,0.011764922178662979,0
0.00244140625,0.0011138916015625,-5.18798828125E-4,0.0027331979806875326,0
0.00244140625,-0.0212554931640625,0.0016021728515625,0.021455148845238307,0
-0.0018157958984375,0.00537109375,0.0037384033203125,0.0067912754473217355,0
-0.006072998046875,0.027740478515625,0.0026702880859375,0.0285227258868275,0
-7.476806640625E-4,-0.019134521484375,0.0048065185546875,0.019743139553474686,0
-7.476806640625E-4,-0.00421142578125,0.0016021728515625,0.004567503840466259,0
-0.008209228515625,0.01922607421875,-5.18798828125E-4,0.02091177933392321,0
0.0067138671875,-0.026580810546875,-0.004791259765625,0.02783112775440383,0
-0.006072998046875,0.018157958984375,-0.002655029296875,0.019329820493808443,0
0.003509521484375,0.00537109375,0.0048065185546875,0.00801673310876282,0
0.003509521484375,-0.0244598388671875,-0.0015869140625,0.02476123491871571,0
-0.0028839111328125,0.029876708984375,-0.0069122314453125,0.03080119521564968,0
0.0077667236328125,-0.00848388671875,-0.00372314453125,0.012089670592933772,0
-0.0028839111328125,-0.0255279541015625,0.0026702880859375,0.025828740242128365,0
-7.476806640625E-4,0.0319976806640625,-0.0058441162109375,0.032535584957730124,0
0.0099029541015625,-0.00848388671875,-0.004791259765625,0.013892480121847687,0
-0.0039520263671875,-0.01593017578125,0.0048065185546875,0.01710238677626677,0
0.0099029541015625,0.02667236328125,-5.18798828125E-4,0.02845615250114974,0
-0.006072998046875,-0.016998291015625,0.0026702880859375,0.01824701732314421,0
0.005645751953125,-0.016998291015625,-5.18798828125E-4,0.017918860588557416,0
-0.0039520263671875,0.0224151611328125,5.340576171875E-4,0.02276715130523293,0
-0.0039520263671875,-0.003143310546875,-0.00372314453125,0.0062738121426782955,0
0.001373291015625,-0.007415771484375,-0.002655029296875,0.00799554722888498,0
-0.0050048828125,-0.005279541015625,-5.18798828125E-4,0.007293254248042395,0
0.00244140625,0.00750732421875,0.0016021728515625,0.008055267795005532,0
-0.0039520263671875,0.0011138916015625,0.0058746337890625,0.0071673278885908045,0
-0.0039520263671875,0.0106964111328125,5.340576171875E-4,0.011415644575212405,0
-0.006072998046875,0.016021728515625,0.006927490234375,0.01848153702626218,0
-0.0039520263671875,-0.01806640625,0.0165252685546875,0.024801170294998738,0
-0.0124664306640625,0.00750732421875,0.0037384033203125,0.01502489500171737,0
0.005645751953125,0.01922607421875,-0.0101165771484375,0.02244686121000854,0
0.00457763671875,-0.0446929931640625,-0.0058441162109375,0.045305320771171324,0
-0.008209228515625,0.0096282958984375,0.0016021728515625,0.012753919890602377,0
3.204345703125E-4,0.0245513916015625,0.0037384033203125,0.02483644836268762,0
-0.0028839111328125,-0.05108642578125,-0.004791259765625,0.051391594766720575,0
-0.0039520263671875,0.0224151611328125,-0.0101165771484375,0.024907892207434598,0
3.204345703125E-4,0.0106964111328125,5.340576171875E-4,0.010714527846549401,0
0.00457763671875,-0.0446929931640625,-5.18798828125E-4,0.0449298069004959,0
0.001373291015625,0.037322998046875,-5.18798828125E-4,0.037351857566186655,0
0.005645751953125,-0.01593017578125,0.0026702880859375,0.017110682452773137,0
-0.00714111328125,-0.0106048583984375,0.0026702880859375,0.013060970829477237,0
-0.0028839111328125,0.02667236328125,-0.0058441162109375,0.027456977268371617,0
0.001373291015625,-0.01806640625,-0.004791259765625,0.018741321542125367,0
0.003509521484375,-0.030853271484375,-5.18798828125E-4,0.031056565401890484,0
3.204345703125E-4,0.0319976806640625,0.0016021728515625,0.0320393695949133,0
-7.476806640625E-4,0.00750732421875,-5.18798828125E-4,0.007562281105916859,0
0.0067138671875,-0.01806640625,-5.18798828125E-4,0.019280565334696284,0
0.00244140625,-0.0010223388671875,-0.002655029296875,0.0037489761007728282,0
0.00244140625,-0.005279541015625,-5.18798828125E-4,0.005839791951539848,0
0.001373291015625,-0.016998291015625,5.340576171875E-4,0.017062035142501316,0
0.00457763671875,0.0234832763671875,-0.002655029296875,0.024072145883444206,0
-0.006072998046875,0.00750732421875,-0.002655029296875,0.010014509612060015,0
0.005645751953125,-0.0127410888671875,-5.18798828125E-4,0.01394557323532625,0
-7.476806640625E-4,-0.0138092041015625,-5.18798828125E-4,0.013839158085594924,0
-7.476806640625E-4,4.57763671875E-5,-0.0015869140625,0.001754827083494576,0
0.00457763671875,-0.0106048583984375,-0.00372314453125,0.012135880057924741,0
-0.0028839111328125,0.006439208984375,0.0037384033203125,0.007984736385863915,0
0.003509521484375,0.006439208984375,0.0016021728515625,0.00750647129082829,0
-0.0018157958984375,-0.00421142578125,-5.18798828125E-4,0.004615449499217113,0
0.001373291015625,0.0011138916015625,-5.18798828125E-4,0.0018427791342675033,0
0.003509521484375,0.004302978515625,5.340576171875E-4,0.005578313606610516,0
-7.476806640625E-4,0.0117645263671875,0.0037384033203125,0.01236684140777209,0
-0.0039520263671875,-0.005279541015625,0.0058746337890625,0.008831952666211855,0
0.003509521484375,0.0117645263671875,0.0016021728515625,0.012380944210350983,0
0.003509521484375,-0.016998291015625,-0.0058441162109375,0.01831426582716626,0
0.00244140625,0.00537109375,0.0016021728515625,0.006113597173114372,0
-0.0039520263671875,-0.0095367431640625,0.006927490234375,0.01243213994176381,0
3.204345703125E-4,0.025604248046875,0.011199951171875,0.027948508056998996,0
0.001373291015625,-0.0223236083984375,0.0037384033203125,0.02267609048151178,0
-7.476806640625E-4,0.00537109375,-0.0015869140625,0.005650307132224076,0
-0.0039520263671875,0.0106964111328125,0.0037384033203125,0.012000307617491476,0
0.005645751953125,-0.03936767578125,-0.002655029296875,0.039858971287542,0
-0.010345458984375,0.0447845458984375,-0.0090484619140625,0.046846117618612536,0
0.00457763671875,-0.016998291015625,-0.0079803466796875,0.019328284675798967,0
-0.0241851806640625,-0.0351104736328125,-0.0015869140625,0.042663645164419846,0
0.0077667236328125,0.01495361328125,0.0048065185546875,0.017522418975992434,0
0.0088348388671875,4.57763671875E-5,0.0058746337890625,0.0106097971441755,0
-0.01885986328125,0.0011138916015625,0.0037384033203125,0.01925904610495538,0
0.0120391845703125,0.00323486328125,0.00799560546875,0.014809997041807098,0
-0.006072998046875,-0.00634765625,-0.0015869140625,0.008927056703486983,0
-0.0039520263671875,-0.00848388671875,-0.0079803466796875,0.012299625172806168,0
0.00457763671875,0.02667236328125,0.0016021728515625,0.027109715579144416,0
-0.0156707763671875,-0.0223236083984375,-0.0015869140625,0.027320963015950807,0
-0.0167236328125,0.00750732421875,-0.014373779296875,0.023294749250593563,0
0.01416015625,0.1715545654296875,-0.004791259765625,0.17220463151418153,0
0.01416015625,-0.0713348388671875,0.0154571533203125,0.07435114558633019,0
0.00244140625,-0.1373748779296875,-5.18798828125E-4,0.13739754984314,0
-0.00927734375,0.16302490234375,-0.01544189453125,0.16401719421438454,0
-0.03057861328125,0.0703582763671875,-5.18798828125E-4,0.07671771500631283,0
-0.0039520263671875,-0.0553436279296875,0.0154571533203125,0.05759738929495224,0
0.001373291015625,-0.0446929931640625,-0.0090484619140625,0.045620436529989206,0
-0.03057861328125,0.10870361328125,0.0037384033203125,0.1129845245597339,0
0.026947021484375,0.041595458984375,0.0016021728515625,0.04958720735075201,0
0.00457763671875,-0.0894317626953125,0.0016021728515625,0.08956317264682968,0
0.0077667236328125,-0.040435791015625,-0.002655029296875,0.04126044560611352,0
-0.0337677001953125,0.0128326416015625,-5.18798828125E-4,0.036127599133885496,0
-0.0124664306640625,0.1161651611328125,0.011199951171875,0.11736777863096223,0
0.0099029541015625,-0.1363067626953125,-0.004791259765625,0.13674998437497382,0
-0.01885986328125,-0.0478973388671875,-0.004791259765625,0.051699184555342156,0
-0.01885986328125,0.1651611328125,0.0016021728515625,0.16624217633543537,0
-0.0028839111328125,-0.1022186279296875,0.006927490234375,0.1024936825379848,0
-0.006072998046875,-0.0319061279296875,-0.0079803466796875,0.033445003182402774,0
0.003509521484375,0.1502532958984375,-0.0111846923828125,0.15070987695931162,0
-7.476806640625E-4,-0.1000823974609375,-0.0015869140625,0.1000977702256461,0
0.00457763671875,-0.07452392578125,-0.00372314453125,0.07475715401872039,0
-0.010345458984375,0.095916748046875,-0.0069122314453125,0.09672037024866402,0
0.001373291015625,0.039459228515625,-0.0090484619140625,0.04050668224221961,0
0.01629638671875,-0.0670623779296875,-5.18798828125E-4,0.06901596848480322,0
-0.0113983154296875,0.0106964111328125,0.0058746337890625,0.01669868641278116,0
-0.010345458984375,0.1182861328125,-0.004791259765625,0.11883431283714091,0
0.0099029541015625,-0.0606689453125,-0.0058441162109375,0.06174903334916031,0
0.003509521484375,0.086334228515625,-0.004791259765625,0.08653826855547286,0
-0.008209228515625,0.1257476806640625,0.0048065185546875,0.1261069912646771,0
0.015228271484375,-0.3312530517578125,0.0037384033203125,0.3316239741192593,0
-7.476806640625E-4,0.084197998046875,-0.004791259765625,0.08433752469463801,0
-0.010345458984375,0.0319976806640625,5.340576171875E-4,0.033632801058121525,0
0.0077667236328125,-0.028717041015625,0.0048065185546875,0.03013458248089945,0
3.204345703125E-4,0.0596923828125,0.0016021728515625,0.05971474024053174,0
-0.0018157958984375,0.006439208984375,-0.002655029296875,0.007197896057633975,0
0.0077667236328125,-0.0787811279296875,0.0016021728515625,0.07917925910052809,0
-0.0018157958984375,-0.028717041015625,0.0016021728515625,0.028818961072255102,0
3.204345703125E-4,0.0341339111328125,0.0016021728515625,0.03417299409450211,0
0.003509521484375,-0.0020904541015625,0.0026702880859375,0.004880284608701519,0
0.00244140625,0.00323486328125,0.0016021728515625,0.004357953966278498,0
0.005645751953125,-0.030853271484375,-5.18798828125E-4,0.031369858600714576,0
-0.0135345458984375,-0.0361785888671875,-5.18798828125E-4,0.03863086042689133,0
-0.0050048828125,-0.094757080078125,-5.18798828125E-4,0.0948905802971144,0
0.024810791015625,-0.4590911865234375,0.0133209228515625,0.459954062793162,0
0.0067138671875,-0.2747955322265625,0.0048065185546875,0.274919557625331,0
3.204345703125E-4,-0.0596160888671875,-0.0058441162109375,0.0599027079890483,0
0.0077667236328125,-0.1150054931640625,0.0048065185546875,0.11536762143042678,0
0.00457763671875,-0.0446929931640625,0.0016021728515625,0.04495537068847358,0
-0.0028839111328125,0.05224609375,0.006927490234375,0.05278220700674717,0
-7.476806640625E-4,0.0224151611328125,-0.0015869140625,0.022483700123136347,0
-0.0028839111328125,0.0330657958984375,-0.0069122314453125,0.03390343264881379,0
-0.006072998046875,0.039459228515625,0.009063720703125,0.04093974906261539,0
0.01629638671875,0.1715545654296875,5.340576171875E-4,0.17232767147905892,0
-0.02099609375,0.1023101806640625,-0.0015869140625,0.10445442698379834,0
0.02801513671875,-0.0255279541015625,0.0154571533203125,0.040932235643186946,0
0.03546142578125,-0.0585479736328125,0.006927490234375,0.06879947714841277,0
-0.0252532958984375,0.02880859375,0.0133209228515625,0.04055996811147488,0
0.02801513671875,0.1800689697265625,0.0122528076171875,0.18264668909744777,0
-0.0050048828125,0.00323486328125,0.0016021728515625,0.006170911623214299,0
-0.008209228515625,0.086334228515625,0.0101318359375,0.08731348432902174,0
0.0109710693359375,-0.0553436279296875,0.0037384033203125,0.05654429391352374,0
-0.0050048828125,-0.073455810546875,0.0016021728515625,0.07364354630863137,0
0.01416015625,-0.061737060546875,5.340576171875E-4,0.06334240197159718,0
-0.0167236328125,0.027740478515625,0.0026702880859375,0.03250145352418994,0
0.0205535888671875,-0.0489501953125,0.0048065185546875,0.053307356500485244,0
-0.0039520263671875,-0.0915679931640625,5.340576171875E-4,0.09165479312092313,0
-0.0135345458984375,0.039459228515625,0.0026702880859375,0.04180125699290781,0
0.0099029541015625,-0.052154541015625,0.0058746337890625,0.053410448141199475,0
-0.00714111328125,0.0224151611328125,0.0058746337890625,0.024247603379740194,0
3.204345703125E-4,0.025604248046875,0.0048065185546875,0.026053460748551405,0
0.00457763671875,-0.01593017578125,0.0101318359375,0.019426254343408274,0
0.013092041015625,-0.003143310546875,0.009063720703125,0.016230618353382586,0
-7.476806640625E-4,0.0224151611328125,0.0016021728515625,0.02248478225003847,0
0.003509521484375,0.0426483154296875,0.0016021728515625,0.04282245331465369,0
0.01629638671875,0.0767364501953125,0.00799560546875,0.0788541990985682,0
-7.476806640625E-4,0.144927978515625,0.00799560546875,0.14515029345410493,0
-0.006072998046875,0.0139007568359375,-0.0015869140625,0.015252234004596538,0
3.204345703125E-4,0.07354736328125,0.0037384033203125,0.0736430104173053,0
-0.006072998046875,-0.0436248779296875,0.011199951171875,0.045447224182670026,0
-0.0050048828125,-0.00421142578125,0.00799560546875,0.010330279080922256,0
-0.00714111328125,-0.007415771484375,0.0037384033203125,0.010952845520203326,0
-7.476806640625E-4,0.0106964111328125,0.00799560546875,0.013375423145062479,0
-0.010345458984375,0.0117645263671875,0.0101318359375,0.018657081811099287,0
0.017364501953125,0.0106964111328125,0.0101318359375,0.022772642329485036,0
-7.476806640625E-4,-0.0244598388671875,0.0016021728515625,0.024523655959715167,0
0.0099029541015625,0.00323486328125,0.0016021728515625,0.010540388903276623,0
0.005645751953125,-0.085174560546875,-0.00372314453125,0.08544262451885515,0
0.0216217041015625,-0.1000823974609375,-5.18798828125E-4,0.10239264388621215,0
0.003509521484375,-0.16400146484375,5.340576171875E-4,0.16403988060677055,0
-7.476806640625E-4,-0.04150390625,0.009063720703125,0.04248863722653927,0
-0.0167236328125,-0.019134521484375,5.340576171875E-4,0.025418399328474856,0
-0.008209228515625,0.1651611328125,-0.012237548828125,0.16581721510763217,0
-0.008209228515625,0.1044464111328125,-0.0250244140625,0.1077156698466741,0
-0.02099609375,0.060760498046875,-0.0196990966796875,0.06723636282294548,0
-0.017791748046875,0.0319976806640625,-0.014373779296875,0.03933196407145303,0
-0.0156707763671875,0.00323486328125,-0.0015869140625,0.01607967252902067,0
0.00457763671875,-0.0809173583984375,0.0016021728515625,0.08106257216469458,0
-0.0028839111328125,-0.0809173583984375,0.0037384033203125,0.0810549905495551,0
-0.0050048828125,-0.050018310546875,0.0058746337890625,0.050610192294498146,0
-0.010345458984375,-0.073455810546875,0.0016021728515625,0.07419805646067869,0
0.0109710693359375,-0.106475830078125,-0.03460693359375,0.11249491813394025,0
0.0301361083984375,0.1001739501953125,-0.0442047119140625,0.11356523183853667,0
0.0099029541015625,-0.02020263671875,-0.0175628662109375,0.02854241229943134,0
0.0099029541015625,-0.22259521484375,-0.0069122314453125,0.22292258098906545,0
3.204345703125E-4,-0.1118011474609375,-0.0186309814453125,0.11334333999627734,0
0.0067138671875,0.0128326416015625,-0.0196990966796875,0.024450094336857207,0
0.003509521484375,0.01922607421875,-0.0314178466796875,0.03700053730559225,0
-0.0231170654296875,0.018157958984375,-0.049530029296875,0.057596301883957736,0
0.003509521484375,0.0341339111328125,-0.0431365966796875,0.0551199292758804,0
0.0109710693359375,-0.052154541015625,-0.03887939453125,0.06597020410792323,0
0.0216217041015625,-0.0106048583984375,-0.0410003662109375,0.0475498805396756,0
0.0120391845703125,0.0213470458984375,-0.061248779296875,0.06597007881657678,0
-0.0135345458984375,0.0224151611328125,-0.0655059814453125,0.07054542498561112,0
0.003509521484375,0.0224151611328125,-0.0633697509765625,0.06730885178407653,0
0.0067138671875,-0.019134521484375,-0.0676422119140625,0.07061639156509157,0
-0.0146026611328125,0.0330657958984375,-0.072967529296875,0.0814300000137983,0
-0.01885986328125,0.01708984375,-0.0644378662109375,0.06928200202221019,0
-0.03057861328125,-0.05108642578125,-0.0633697509765625,0.08695170974822145,0
-0.0284423828125,0.0426483154296875,-0.0793609619140625,0.09447756466467684,0
-0.006072998046875,-0.00848388671875,-0.094268798828125,0.09484442035054794,0
0.0109710693359375,0.004302978515625,-0.0974578857421875,0.09816781285032866,0
0.0184173583984375,0.0895233154296875,-0.1070556640625,0.14076412292826135,0
-0.00714111328125,0.0330657958984375,-0.1123809814453125,0.1173619501708473,0
-0.0167236328125,-0.0351104736328125,-0.1070556640625,0.11390057269843117,0
0.001373291015625,-0.0819854736328125,-0.10491943359375,0.1331600216305311,0
-0.00927734375,-0.1501617431640625,-0.1102447509765625,0.18651681783423663,0
-0.0220489501953125,-0.1256561279296875,-0.108123779296875,0.16723148728764178,0
-0.0710601806640625,-0.06280517578125,-0.117706298828125,0.15115823551741656,0
0.0088348388671875,-0.04150390625,-0.1187744140625,0.12612688074993433,0
0.00244140625,0.0224151611328125,-0.149658203125,0.15134720901189835,0
-0.04229736328125,0.0692901611328125,-0.184814453125,0.2018578099907209,0
0.015228271484375,-0.0713348388671875,-0.18695068359375,0.20067664932617313,0
0.0546417236328125,-0.1032867431640625,-0.1688385009765625,0.205329755970771,0
0.01629638671875,0.084197998046875,-0.1347503662109375,0.15972644204755324,0
-0.0039520263671875,0.1065673828125,-0.174163818359375,0.20421866030661898,0
-0.0252532958984375,0.0586395263671875,-0.2380828857421875,0.24649499688559529,0
-0.010345458984375,0.0319976806640625,-0.2231597900390625,0.2256793565653606,0
0.0237579345703125,-0.1235198974609375,-0.1880035400390625,0.22620109546822964,0
0.0322723388671875,-0.3568115234375,-0.1816253662109375,0.4016761640488583,0
0.017364501953125,-0.1544189453125,-0.1805572509765625,0.23821766827781338,0
-0.0518798828125,0.0117645263671875,-0.17523193359375,0.1831287985880085,0
-0.01885986328125,-0.0585479736328125,-0.137939453125,0.15103262027760767,0
0.0099029541015625,-0.0138092041015625,-0.1230316162109375,0.12419960227525563,0
-0.0113983154296875,0.0767364501953125,-0.161376953125,0.1790556488444885,0
0.026947021484375,0.0469207763671875,-0.174163818359375,0.18237526380322622,0
0.005645751953125,0.0128326416015625,-0.172027587890625,0.17259792061626084,0
0.003509521484375,0.05010986328125,-0.174163818359375,0.1812632085245989,0
-0.0263214111328125,-0.0106048583984375,-0.1667022705078125,0.169100345056222,0
-0.0018157958984375,-0.1011505126953125,-0.1432647705078125,0.17538391545955842,0
0.0450592041015625,-0.08837890625,-0.148590087890625,0.17866218727967095,0
-0.0476226806640625,0.1236114501953125,-0.1912078857421875,0.23261162030951274,0
-0.041229248046875,0.062896728515625,-0.1922760009765625,0.20646043181204976,0
-0.0039520263671875,4.57763671875E-5,-0.161376953125,0.16142534375924739,0
-0.0241851806640625,0.1470489501953125,-0.174163818359375,0.229219005195499,0
0.013092041015625,0.0778045654296875,-0.1784210205078125,0.19508719204167807,0
0.0088348388671875,-0.026580810546875,-0.176300048828125,0.17851134721338385,0
-0.0050048828125,0.00537109375,-0.1699066162109375,0.17006515143405765,0
0.0099029541015625,-0.0564117431640625,-0.1464691162109375,0.15726905375934236,0
0.0088348388671875,-0.0937042236328125,-0.1347503662109375,0.16436604606310595,0
-0.0252532958984375,-0.0138092041015625,-0.1667022705078125,0.16916876208127948,0
-0.0124664306640625,-0.075592041015625,-0.176300048828125,0.19222714630147603,0
0.01416015625,-0.1011505126953125,-0.15179443359375,0.18295760796861213,0
-0.0220489501953125,0.0543670654296875,-0.150726318359375,0.16174163673687414,0
-0.0231170654296875,0.02667236328125,-0.16351318359375,0.1672793319153649,0
-0.00927734375,-0.0606689453125,-0.1571197509765625,0.1686813747256163,0
-0.008209228515625,-0.030853271484375,-0.1475372314453125,0.1509521462472727,0
0.01416015625,-0.0894317626953125,-0.1422119140625,0.1685905652909883,0
0.0088348388671875,-0.1054229736328125,-0.162445068359375,0.1938567976153425,0
0.0077667236328125,-0.06280517578125,-0.1688385009765625,0.180308767154886,0
0.0088348388671875,-0.026580810546875,-0.1592559814453125,0.16170053028128184,0
-0.0369720458984375,0.027740478515625,-0.17523193359375,0.18122554145924474,0
-0.008209228515625,0.05224609375,-0.1805572509765625,0.18814347351202199,0
-0.0124664306640625,0.0799407958984375,-0.16351318359375,0.1824349307324146,0
-0.01885986328125,0.08526611328125,-0.1443328857421875,0.16869495079505417,0
-0.0018157958984375,-0.05108642578125,-0.1432647705078125,0.15211151988756186,0
0.0333404541015625,-0.165069580078125,-0.1230316162109375,0.20855773956950707,0
0.062103271484375,-0.073455810546875,-0.127288818359375,0.1595462807823684,0
0.0205535888671875,0.121490478515625,-0.1901397705078125,0.2265734289673891,0
0.0205535888671875,0.1023101806640625,-0.2359466552734375,0.2579935022777838,0
-0.031646728515625,0.0117645263671875,-0.1784210205078125,0.1815873896101686,0
-0.0359039306640625,-0.0702667236328125,-0.1315460205078125,0.15339771901388133,0
-0.0252532958984375,-0.134185791015625,-0.1240997314453125,0.18451097205592332,0
0.015228271484375,-0.1118011474609375,-0.1560516357421875,0.19257079177226355,0
0.036529541015625,-0.0233917236328125,-0.1912078857421875,0.19606640627941221,0
0.0226898193359375,0.0565032958984375,-0.196533203125,0.20574924126094943,0
-7.476806640625E-4,-0.00848388671875,-0.164581298828125,0.16480151481155922,0
-0.0018157958984375,-0.13311767578125,-0.1475372314453125,0.19872304190177464,0
-7.476806640625E-4,-0.110748291015625,-0.1560516357421875,0.19135792642864144,0
0.0205535888671875,-0.087310791015625,-0.172027587890625,0.19400802879922838,0
0.0099029541015625,-0.03936767578125,-0.1890716552734375,0.193380384796889,0
0.0067138671875,0.041595458984375,-0.1890716552734375,0.1937094449131735,0
-0.0167236328125,0.0011138916015625,-0.1784210205078125,0.17920653226932495,0
-0.029510498046875,-0.0095367431640625,-0.174163818359375,0.17690351774532148,0
-7.476806640625E-4,-0.1011505126953125,-0.17523193359375,0.20233194457599718,0
0.0184173583984375,-0.019134521484375,-0.1912078857421875,0.19304347845190195,0
0.00244140625,0.05010986328125,-0.2231597900390625,0.22872964554867295,0
-0.0039520263671875,0.01708984375,-0.2146453857421875,0.21536091310221275,0
-0.02099609375,-0.0372467041015625,-0.19439697265625,0.1990435527644715,0
0.029083251953125,-0.0468292236328125,-0.1901397705078125,0.19796955336360317,0
0.02801513671875,-0.075592041015625,-0.1997222900390625,0.2153787308178911,0
0.0088348388671875,0.0106964111328125,-0.218902587890625,0.21934176659757285,0
0.0184173583984375,-0.0553436279296875,-0.2146453857421875,0.22242921989524814,0
0.02587890625,-0.0457611083984375,-0.208251953125,0.21478517828501814,0
0.0077667236328125,0.0586395263671875,-0.2242279052734375,0.23189883473590425,0
-0.0018157958984375,-0.0574798583984375,-0.2252960205078125,0.23251995203187592,0
0.001373291015625,-0.07666015625,-0.2114410400390625,0.22491326972254982,0
-0.0113983154296875,0.02880859375,-0.21783447265625,0.22002662144820959,0
0.005645751953125,0.00537109375,-0.2242279052734375,0.22436326942372087,0
-0.0050048828125,-0.0212554931640625,-0.232757568359375,0.2337796622253174,0
-0.0273895263671875,0.0330657958984375,-0.2348785400390625,0.2387707301657753,0
-0.00714111328125,-0.02978515625,-0.232757568359375,0.23476421503351333,0
-0.01885986328125,-0.0244598388671875,-0.255126953125,0.2569897670555039,0
-0.029510498046875,0.01708984375,-0.2583160400390625,0.2605573042457965,0
-0.0028839111328125,-0.1054229736328125,-0.242340087890625,0.2642934704298282,0
-0.0241851806640625,-0.028717041015625,-0.265777587890625,0.26841631402246274,0
-0.052947998046875,-0.00421142578125,-0.2689666748046875,0.274161081774517,0
-0.0401611328125,-0.08624267578125,-0.2583160400390625,0.27527784556000073,0
-0.0146026611328125,0.03839111328125,-0.2860107421875,0.2889450811794139,0
-0.00714111328125,0.0788726806640625,-0.287078857421875,0.2978022257013538,0
0.0088348388671875,-0.075592041015625,-0.2711029052734375,0.2815830184695368,0
0.00244140625,-0.085174560546875,-0.2604522705078125,0.2740365877789051,0
0.013092041015625,-0.0095367431640625,-0.2678985595703125,0.26838775908744494,0
0.0194854736328125,-0.0319061279296875,-0.2860107421875,0.28844380618901355,0
0.0109710693359375,-0.1043548583984375,-0.2678985595703125,0.2877150309830548,0
-0.008209228515625,-0.073455810546875,-0.243408203125,0.254382980728785,0
-0.0263214111328125,-0.0436248779296875,-0.240203857421875,0.2455480396556876,0
0.0067138671875,-0.106475830078125,-0.2348785400390625,0.2579730741265813,0
0.0067138671875,-0.1011505126953125,-0.2348785400390625,0.2558210913940003,0
-0.006072998046875,-0.0106048583984375,-0.2487335205078125,0.24903354904738967,0
0.0194854736328125,-0.0255279541015625,-0.2465972900390625,0.2486796806695634,0
0.003509521484375,-0.00848388671875,-0.2359466552734375,0.23612521510763781,0
-0.0156707763671875,0.0128326416015625,-0.2338104248046875,0.23468609816044278,0
0.0205535888671875,-0.061737060546875,-0.2338104248046875,0.24269575481997685,0
-0.0135345458984375,-0.04150390625,-0.2359466552734375,0.23995120816826085,0
0.0120391845703125,-0.04150390625,-0.2135772705078125,0.21790540763527222,0
0.017364501953125,-0.108612060546875,-0.1922760009765625,0.22151335439620157,0
-0.0220489501953125,0.04052734375,-0.2157135009765625,0.22059223989005475,0
-0.0135345458984375,0.0437164306640625,-0.2359466552734375,0.24034378372948415,0
-0.0124664306640625,-0.0606689453125,-0.2242279052734375,0.23262477581321095,0
-0.00927734375,0.02880859375,-0.216766357421875,0.21886904278781927,0
3.204345703125E-4,0.0245513916015625,-0.218902587890625,0.22027531975484663,0
-0.0113983154296875,0.0234832763671875,-0.230621337890625,0.23209391925260384,0
0.00244140625,-0.01806640625,-0.2146453857421875,0.2154181912459578,0
0.0067138671875,0.03839111328125,-0.22210693359375,0.2255004291392893,0
-0.02099609375,0.0884552001953125,-0.2604522705078125,0.2758632697678804,0
-0.01885986328125,0.0458526611328125,-0.243408203125,0.24840634920325455,0
-0.01885986328125,-0.038299560546875,-0.230621337890625,0.2345394471544883,0
0.01416015625,-0.0585479736328125,-0.228485107421875,0.23629181017360437,0
0.003509521484375,-0.0446929931640625,-0.2380828857421875,0.24226687941676991,0
-0.039093017578125,-0.016998291015625,-0.2476654052734375,0.25130729971505306,0
-0.0348358154296875,-0.0819854736328125,-0.22210693359375,0.23930449614218768,0
-0.0454864501953125,-0.07452392578125,-0.2146453857421875,0.23172283936986524,0
-0.0380401611328125,-0.0233917236328125,-0.2231597900390625,0.22758409101649146,0
-0.02099609375,-0.0958251953125,-0.2380828857421875,0.2575009990131399,0
-0.0380401611328125,-0.03936767578125,-0.2572479248046875,0.26300829373186335,0
-0.04229736328125,-0.0713348388671875,-0.2465972900390625,0.260169078930151,0
0.013092041015625,-0.1011505126953125,-0.2338104248046875,0.2550884993562583,0
-0.00714111328125,0.016021728515625,-0.243408203125,0.24403943253512392,0
-0.0220489501953125,-0.134185791015625,-0.230621337890625,0.2677278173923401,0
0.0684967041015625,-0.3078155517578125,-0.197601318359375,0.372140421607364,0
0.0546417236328125,-0.122467041015625,-0.2114410400390625,0.2503821229830274,0
0.0578460693359375,0.0011138916015625,-0.242340087890625,0.24915081113846282,0
0.03759765625,0.00537109375,-0.2498016357421875,0.2526722969045815,0
0.0450592041015625,-0.02020263671875,-0.218902587890625,0.22440325619266058,0
0.03759765625,-0.04150390625,-0.1784210205078125,0.1870032581228231,0
0.0429229736328125,0.05224609375,-0.207183837890625,0.2179384744846712,0
0.09405517578125,0.07568359375,-0.2572479248046875,0.2841669883545149,0
0.0897979736328125,0.0671539306640625,-0.28814697265625,0.30919573787999516,0
0.0993804931640625,-0.0489501953125,-0.275360107421875,0.2968093543034834,0
0.0897979736328125,-0.1480255126953125,-0.2583160400390625,0.3109701030947058,0
0.1004486083984375,-0.1618804931640625,-0.263641357421875,0.3252721665612838,0
0.0770111083984375,-0.1895751953125,-0.300933837890625,0.3639102090929978,0
0.00457763671875,-0.18743896484375,-0.3094482421875,0.3618183727957427,0
0.0088348388671875,-0.2747955322265625,-0.25299072265625,0.3736240686299807,0
-0.0806427001953125,-0.3536224365234375,-0.2242279052734375,0.4264155557796611,0
-0.123260498046875,-0.25775146484375,-0.2348785400390625,0.3698606448092904,0
-0.144561767578125,-0.1853179931640625,-0.19866943359375,0.3077505598372305,0
-0.1701202392578125,-0.0606689453125,-0.148590087890625,0.23388166013993092,0
-0.1807861328125,0.0106964111328125,-0.152862548828125,0.23699155652185575,0
-0.164794921875,0.15130615234375,-0.21783447265625,0.3122543442296423,0
-0.1403045654296875,0.2152252197265625,-0.2391510009765625,0.35099924153030926,0
-0.12005615234375,0.1385345458984375,-0.2157135009765625,0.28308587853589134,0
-0.041229248046875,0.1225433349609375,-0.2231597900390625,0.2579089213814399,0
0.038665771484375,0.08526611328125,-0.2817535400390625,0.2969013460446356,0
0.0439910888671875,0.041595458984375,-0.31158447265625,0.3174118487207354,0
0.03546142578125,0.0352020263671875,-0.266845703125,0.27148356240308713,0
0.02801513671875,-0.106475830078125,-0.230621337890625,0.25555459644987377,0
0.062103271484375,-0.10968017578125,-0.218902587890625,0.2525963188046902,0
0.040802001953125,-0.038299560546875,-0.2498016357421875,0.2559931970208175,0
0.03546142578125,-0.0926361083984375,-0.265777587890625,0.28368413336421383,0
0.050384521484375,-0.120330810546875,-0.2338104248046875,0.267741328000415,0
-0.0039520263671875,0.0021820068359375,-0.218902587890625,0.21894913256610957,0
0.0120391845703125,-0.0020904541015625,-0.216766357421875,0.21711049185476242,0
0.015228271484375,-0.0670623779296875,-0.22955322265625,0.23963293767313365,0
-0.008209228515625,-0.02020263671875,-0.22955322265625,0.23058668650874323,0
0.0237579345703125,-0.0926361083984375,-0.2157135009765625,0.2359622904996045,0
-0.0050048828125,-0.0361785888671875,-0.2242279052734375,0.22718294972929087,0
-0.0028839111328125,0.016021728515625,-0.216766357421875,0.2173767844964094,0
0.01629638671875,-0.0670623779296875,-0.2114410400390625,0.22241908228942883,0
-0.019927978515625,0.0341339111328125,-0.1901397705078125,0.194204481270916,0
-0.017791748046875,0.018157958984375,-0.152862548828125,0.1549619843938268,0
0.05145263671875,-0.0564117431640625,-0.164581298828125,0.1814294973703901,0
-0.02099609375,0.08740234375,-0.2231597900390625,0.24058324450391472,0
0.0184173583984375,0.00323486328125,-0.243408203125,0.2441254119901616,0
0.0344085693359375,-0.054290771484375,-0.196533203125,0.20677702348831495,0
0.017364501953125,0.0106964111328125,-0.149658203125,0.15104144100810876,0
0.0312042236328125,-0.134185791015625,-0.1240997314453125,0.18541918300924057,0
0.04718017578125,-0.1959686279296875,-0.1134490966796875,0.23130146920595,0
0.0216217041015625,-0.1160736083984375,-0.11663818359375,0.1659670043320017,0
0.0099029541015625,-0.0702667236328125,-0.117706298828125,0.13744181945042624,0
0.048248291015625,-0.03936767578125,-0.1134490966796875,0.12941564441667452,0
0.0301361083984375,0.0703582763671875,-0.09320068359375,0.12060198798156775,0
0.00244140625,0.0767364501953125,-0.0782928466796875,0.10965497295729122,0
0.024810791015625,-0.014862060546875,-0.0644378662109375,0.0706306930189608,0
0.005645751953125,0.05010986328125,-0.0452728271484375,0.06776799975795421,0
-0.0146026611328125,0.0469207763671875,-0.0559234619140625,0.0744461587962265,0
0.0418548583984375,-0.083038330078125,-0.047393798828125,0.10437128724451795,0
0.0237579345703125,-0.01593017578125,-0.0537872314453125,0.060920244763300054,0
-0.0167236328125,0.03094482421875,-0.0484619140625,0.05988170968649608,0
0.0067138671875,-0.16400146484375,-0.0058441162109375,0.16424283904570725,0
0.0184173583984375,-0.0841064453125,0.0048065185546875,0.08623338016161494,0
-0.00714111328125,0.029876708984375,-0.0069122314453125,0.031486380900101016,0
-0.01885986328125,-0.00848388671875,-0.0442047119140625,0.04880294388916804,0
0.0099029541015625,0.029876708984375,-0.049530029296875,0.05868483655787058,0
-0.00927734375,0.08526611328125,-0.0367431640625,0.09330830234480966,0
-0.019927978515625,0.0937957763671875,-0.028228759765625,0.09995816559915467,0
-0.0039520263671875,0.053314208984375,-0.026092529296875,0.05948817930601707,0
-0.0113983154296875,0.00750732421875,-0.026092529296875,0.029446588880010578,0
0.0088348388671875,-0.0904998779296875,-0.004791259765625,0.09105623786012249,0
0.00244140625,-0.073455810546875,0.0016021728515625,0.07351383220470972,0
-0.0486907958984375,0.098052978515625,-0.012237548828125,0.11015869372105708,0
-0.029510498046875,0.02880859375,-0.012237548828125,0.043018160934050816,0
0.0194854736328125,-0.0915679931640625,-0.00372314453125,0.09369227748320245,0
-0.008209228515625,0.03839111328125,-0.0015869140625,0.03929105888159902,0
-0.0273895263671875,-0.0223236083984375,-0.016510009765625,0.03900141111558249,0
-0.00714111328125,-0.01806640625,-0.0079803466796875,0.02100182055950587,0
3.204345703125E-4,0.0128326416015625,0.029296875,0.03198571952533863,0
-0.0252532958984375,0.11083984375,0.032501220703125,0.11823505936671955,0
-0.0337677001953125,0.2631683349609375,-0.014373779296875,0.2657149518447691,0
-0.0220489501953125,0.0117645263671875,-0.0196990966796875,0.03182160736599105,0
0.00457763671875,0.006439208984375,0.006927490234375,0.010507534973563732,0
-0.017791748046875,-0.0138092041015625,0.006927490234375,0.023563330355224663,0
0.0067138671875,0.00323486328125,0.009063720703125,0.011734197290144112,0
0.0099029541015625,0.037322998046875,0.0143890380859375,0.04120824068294166,0
-0.019927978515625,0.0106964111328125,0.0261077880859375,0.03454206330811156,0
-0.0039520263671875,-0.01593017578125,0.0335693359375,0.037366955028650624,0
0.0216217041015625,-0.0223236083984375,0.020782470703125,0.03738653057865309,0
0.01629638671875,0.0021820068359375,-0.00372314453125,0.016858089426732382,0
-0.0135345458984375,-0.0127410888671875,0.0026702880859375,0.018778970063887433,0
-0.006072998046875,-0.0244598388671875,0.018646240234375,0.03135039549294632,0
-0.010345458984375,0.0319976806640625,0.018646240234375,0.03845207880407416,0
-0.019927978515625,0.0447845458984375,0.00799560546875,0.049665980166109396,0
0.0301361083984375,-0.1480255126953125,0.0058746337890625,0.15117621757494826,0
0.017364501953125,-0.1192626953125,0.0101318359375,0.12094532037555941,0
-0.0124664306640625,0.039459228515625,-0.0069122314453125,0.041954994364244144,0
0.040802001953125,-0.220458984375,0.0250396728515625,0.22559688023452937,0
0.0525054931640625,-0.042572021484375,0.032501220703125,0.07500355440151314,0
-0.010345458984375,0.2237548828125,0.006927490234375,0.22410101790259757,0
-0.008209228515625,-0.0340423583984375,0.0261077880859375,0.043679402432835995,0
0.038665771484375,-0.132049560546875,0.032501220703125,0.1413805420568826,0
0.00457763671875,0.119354248046875,-0.0196990966796875,0.12105554797182774,0
-0.00927734375,0.0692901611328125,-0.03460693359375,0.0780053548779121,0
-0.052947998046875,-0.014862060546875,-0.0069122314453125,0.05542698155613766,0
-0.055084228515625,0.121490478515625,0.0143890380859375,0.13416874829167816,0
-0.0146026611328125,-0.003143310546875,0.042083740234375,0.04465601085484687,0
0.0205535888671875,-0.1075439453125,0.020782470703125,0.11144532864694515,0
-0.00927734375,0.0479888916015625,-0.0207672119140625,0.05310630767513177,0
-0.0465545654296875,0.1118927001953125,0.0154571533203125,0.12217294098167887,0
0.03759765625,-0.07666015625,0.0591278076171875,0.10385788821934863,0
-7.476806640625E-4,-0.0659942626953125,0.0484771728515625,0.08188918135354387,0
-0.052947998046875,0.1949920654296875,-0.00372314453125,0.20208725314306192,0
-0.0156707763671875,0.0426483154296875,-0.0015869140625,0.04546394546431583,0
-0.006072998046875,-0.00848388671875,0.0346221923828125,0.036160114000462026,0
-0.00714111328125,0.0778045654296875,0.0218505859375,0.08112948912947894,0
0.0226898193359375,-0.05322265625,0.0122528076171875,0.059140598021215136,0
-0.02099609375,-0.0446929931640625,0.01971435546875,0.05316912075885739,0
-0.00927734375,-0.0233917236328125,0.0261077880859375,0.03626097682509068,0
0.0322723388671875,-0.1043548583984375,0.04315185546875,0.11744582988643067,0
-0.0167236328125,0.027740478515625,0.0335693359375,0.04664884090744279,0
-0.04443359375,0.1939239501953125,0.0058746337890625,0.19903606214716388,0
-0.0018157958984375,0.0117645263671875,0.0218505859375,0.024882710889312383,0
-0.0050048828125,0.03094482421875,0.0165252685546875,0.035436076231726586,0
-0.008209228515625,0.1236114501953125,-0.0079803466796875,0.12414051709791599,0
-0.00714111328125,-0.01806640625,-0.0079803466796875,0.02100182055950587,0
-0.0050048828125,-0.0702667236328125,0.006927490234375,0.07078454226032876,0
-0.0241851806640625,-0.0212554931640625,0.0058746337890625,0.03272965437575602,0
0.0184173583984375,-0.1363067626953125,-5.18798828125E-4,0.13754636236221152,0
0.02587890625,-0.0777130126953125,5.340576171875E-4,0.08191041050084273,0
-0.0135345458984375,0.144927978515625,-5.18798828125E-4,0.1455595137444696,0
-0.00714111328125,0.01708984375,0.0165252685546875,0.024822223089393157,0
-0.0124664306640625,0.0543670654296875,0.00799560546875,0.056348197874907274,0
-0.0050048828125,0.074615478515625,-0.00372314453125,0.07487576571416903,0
-0.006072998046875,-0.0468292236328125,-0.0015869140625,0.047248024165789965,0
0.003509521484375,0.0224151611328125,-0.0058441162109375,0.02342882591907201,0
-0.03271484375,0.03839111328125,-0.0058441162109375,0.050776887211088736,0
-0.00714111328125,-0.05322265625,0.0165252685546875,0.05618479454448377,0
0.015228271484375,-0.03936767578125,-0.0090484619140625,0.04316930404615861,0
0.00457763671875,0.086334228515625,-0.0292816162109375,0.09127960790473216,0
0.062103271484375,-0.085174560546875,0.0143890380859375,0.10638875180419131,0
0.0418548583984375,-0.05108642578125,0.0282440185546875,0.07182880101166907,0
0.03546142578125,0.0330657958984375,0.0356903076171875,0.0602051296373133,0
0.001373291015625,-0.01806640625,0.0218505859375,0.028385367160135663,0
0.0578460693359375,-0.1235198974609375,0.0026702880859375,0.1364201716933405,0
0.06317138671875,-0.07452392578125,0.0218505859375,0.10010937877956888,0
-0.0018157958984375,0.1609039306640625,-0.002655029296875,0.1609360779889254,0
-0.0273895263671875,-0.0329742431640625,-0.0250244140625,0.04963575491551458,0
0.0194854736328125,-0.0468292236328125,0.0165252685546875,0.053345518739173765,0
-0.010345458984375,0.140655517578125,0.030364990234375,0.14426723737114155,0
-0.0252532958984375,0.0362701416015625,0.0048065185546875,0.044456211558656124,0
0.0344085693359375,-0.1022186279296875,0.0101318359375,0.1083293664665234,0
-0.0401611328125,0.1822052001953125,-0.0015869140625,0.1865855564164572,0
-0.008209228515625,0.0799407958984375,0.0122528076171875,0.08128993527000253,0
0.00457763671875,-0.1128692626953125,0.022918701171875,0.11526357656570446,0
-0.0050048828125,0.1044464111328125,0.0133209228515625,0.10541133068180401,0
-0.0124664306640625,-0.0127410888671875,0.022918701171875,0.029034705137630578,0
0.003509521484375,-0.0489501953125,0.01971435546875,0.05288756161640863,0
0.017364501953125,0.02880859375,0.029296875,0.04460681435272246,0
-0.0231170654296875,0.0139007568359375,0.0261077880859375,0.03753993012024045,0
-0.008209228515625,0.0799407958984375,0.017578125,0.08226124701348149,0
-0.0231170654296875,0.01708984375,0.017578125,0.03369646794540181,0
-0.0231170654296875,0.0139007568359375,0.0165252685546875,0.03163406795682243,0
0.001373291015625,0.0905914306640625,0.0122528076171875,0.09142660735518435,0
-0.0018157958984375,0.039459228515625,0.0154571533203125,0.042417583836903576,0
-0.006072998046875,0.1033782958984375,0.0250396728515625,0.10654078366830011,0
-0.01885986328125,0.1129608154296875,0.017578125,0.11586557186689665,0
-7.476806640625E-4,-0.0596160888671875,0.0474090576171875,0.07617253981813665,0
0.003509521484375,-0.129913330078125,0.0463409423828125,0.13797562470945474,0
0.0088348388671875,-0.096893310546875,-0.0058441162109375,0.09747061968013371,0
0.0067138671875,0.0596923828125,-0.016510009765625,0.06229636426715822,0
-0.043365478515625,0.0895233154296875,0.0058746337890625,0.09964687679284309,0
-0.0465545654296875,0.0596923828125,0.0154571533203125,0.07726209754432471,0
0.0322723388671875,-0.06280517578125,0.0570068359375,0.09075116144974307,0
0.05145263671875,-0.1150054931640625,0.04315185546875,0.1331755229522932,0
0.005645751953125,0.133209228515625,-0.0250244140625,0.135656899478116,0
0.001373291015625,0.049041748046875,0.0048065185546875,0.049295857841438556,0
0.001373291015625,0.0426483154296875,0.05487060546875,0.06950933809000727,0
-0.017791748046875,0.0352020263671875,0.0239715576171875,0.046155872145522116,0
0.024810791015625,-0.0010223388671875,-0.0324859619140625,0.040889586071056035,0
0.0067138671875,-0.014862060546875,-0.0101165771484375,0.019191195624834203,0
-0.0348358154296875,0.0362701416015625,0.029296875,0.0582010660831421,0
-0.0220489501953125,0.0788726806640625,0.0346221923828125,0.08891429674266692,0
0.0067138671875,0.0096282958984375,0.0495452880859375,0.05091675231235588,0
-0.0231170654296875,0.0330657958984375,0.020782470703125,0.04538344038307175,0
0.0077667236328125,0.0096282958984375,0.0154571533203125,0.019797718723731893,0
0.0525054931640625,-0.106475830078125,0.052734375,0.12990320823546964,0
-0.0156707763671875,0.0554351806640625,0.0346221923828125,0.06721107566911967,0
0.01416015625,-0.0233917236328125,0.029296875,0.040074800614649575,0
0.0567779541015625,-0.040435791015625,0.029296875,0.07561148161346967,0
-0.00927734375,0.177947998046875,0.0378265380859375,0.18216038564823356,0
-0.0497589111328125,0.0458526611328125,0.029296875,0.07373413493660376,0
0.03759765625,-0.1054229736328125,0.030364990234375,0.11597249569191626,0
-0.066802978515625,0.1459808349609375,0.017578125,0.16149932691180838,0
-0.010345458984375,0.0937957763671875,0.017578125,0.09598784644128891,0
0.04931640625,-0.1714630126953125,0.0452880859375,0.18407249489223076,0
-0.0518798828125,0.074615478515625,0.0250396728515625,0.09426546075455053,0
0.005645751953125,-0.0361785888671875,0.0239715576171875,0.043765287410587606,0
0.024810791015625,-0.1949005126953125,0.0271759033203125,0.19834393089023838,0
-0.0167236328125,0.1140289306640625,0.009063720703125,0.11560461909379381,0
-0.0252532958984375,0.03839111328125,0.029296875,0.05449691199942833,0
-0.00714111328125,-0.106475830078125,0.0378265380859375,0.11322077933528048,0
0.03973388671875,0.0139007568359375,0.0239715576171875,0.04844221680501896,0
-0.0284423828125,0.02880859375,-0.0069122314453125,0.04106924831864958,0
0.003509521484375,-0.00848388671875,0.0154571533203125,0.01797822748975883,0
-7.476806640625E-4,-0.054290771484375,0.0463409423828125,0.0713829800139444,0
-0.03057861328125,0.02880859375,0.0122528076171875,0.04376206072113819,0
0.0109710693359375,0.01922607421875,-0.004791259765625,0.022648674627459515,0
0.0109710693359375,-0.05322265625,0.0122528076171875,0.05570589551549656,0
-0.031646728515625,0.0778045654296875,-0.00372314453125,0.08407691498053893,0
0.003509521484375,-0.028717041015625,-0.00372314453125,0.029169281632274644,0
0.01629638671875,-0.0841064453125,-0.0015869140625,0.08568538183046957,0
-0.0273895263671875,0.1917877197265625,-0.035675048828125,0.1969909254291234,0
0.0088348388671875,0.05224609375,-0.02288818359375,0.05771982015013701,0
0.01416015625,0.01495361328125,-0.0058441162109375,0.021407341485493545,0
-0.02099609375,0.1683502197265625,-0.023956298828125,0.1713374935274912,0
0.0099029541015625,-0.028717041015625,-0.0058441162109375,0.030933648975148154,0
0.0109710693359375,-0.08624267578125,-5.18798828125E-4,0.08693924683655718,0
0.01629638671875,0.0106964111328125,-0.0292816162109375,0.035176675214321274,0
-0.0263214111328125,0.0437164306640625,-0.0452728271484375,0.06821709369388752,0
0.015228271484375,-0.099029541015625,-0.0058441162109375,0.10036385773999586,0
0.0557098388671875,-0.1853179931640625,0.0367584228515625,0.19697087700342347,0
0.001373291015625,0.07354736328125,-0.002655029296875,0.07360808212693101,0
-0.0124664306640625,0.0788726806640625,-0.035675048828125,0.08745868028689982,0
0.03546142578125,-0.099029541015625,0.0016021728515625,0.10519947561680495,0
-0.0348358154296875,0.0820770263671875,0.0239715576171875,0.0923298861069664,0
0.0120391845703125,0.03094482421875,-0.0101165771484375,0.03471122648722852,0
0.0184173583984375,-0.0937042236328125,-0.023956298828125,0.09845600474601361,0
-0.01885986328125,0.107635498046875,-0.0207672119140625,0.11123116457841234,0
-0.02099609375,-0.01593017578125,0.0101318359375,0.028235802673994052,0
0.01416015625,-0.07452392578125,0.01971435546875,0.07837717365675995,0
0.0652923583984375,4.57763671875E-5,0.0026702880859375,0.0653469555462816,0
-0.017791748046875,0.0788726806640625,-0.049530029296875,0.09481914287657295,0
-7.476806640625E-4,-0.087310791015625,-0.0186309814453125,0.08927959858649194,0
0.01629638671875,-0.1597442626953125,0.0335693359375,0.16404481704534524,0
-0.029510498046875,0.016021728515625,0.00799560546875,0.0345180385655806,0
0.0312042236328125,-0.0457611083984375,-0.01544189453125,0.05749986713979755,0
-0.03057861328125,0.00323486328125,-0.0186309814453125,0.03595315563713702,0
-0.006072998046875,0.119354248046875,0.0016021728515625,0.11951939085336151,0
-0.0124664306640625,-0.014862060546875,0.018646240234375,0.026906783755753515,0
-0.0018157958984375,0.07568359375,-0.00372314453125,0.07579686855576817,0
0.0216217041015625,-0.0020904541015625,-5.18798828125E-4,0.021728719217439577,0
-0.050811767578125,-0.019134521484375,0.006927490234375,0.05473532458839323,0
0.0194854736328125,-0.0574798583984375,0.0154571533203125,0.0626301955367146,0
-0.00714111328125,-0.019134521484375,0.0016021728515625,0.020486394733528337,0
-0.0263214111328125,0.119354248046875,-0.0111846923828125,0.12273284220026706,0
0.0205535888671875,-0.0585479736328125,0.0122528076171875,0.06324908320547966,0
-0.008209228515625,0.0128326416015625,0.0026702880859375,0.0154660454466487,0
0.026947021484375,0.0788726806640625,-0.00372314453125,0.08343202938449432,0
0.013092041015625,0.049041748046875,0.009063720703125,0.05156205603379516,0
-0.00927734375,0.16302490234375,-0.00372314453125,0.16333110449772104,0
-0.0252532958984375,0.1257476806640625,-0.0175628662109375,0.12945525256113932,0
0.0067138671875,-0.083038330078125,0.0058746337890625,0.0835161756603511,0
0.04718017578125,-0.0659942626953125,0.0133209228515625,0.08221106179258875,0
-0.010345458984375,0.0788726806640625,-0.0196990966796875,0.08195109936253595,0
-0.019927978515625,-0.06280517578125,-0.0101165771484375,0.06666302997789113,0
-0.0018157958984375,-0.1427001953125,0.0335693359375,0.14660676373297093,0
-0.0486907958984375,0.1118927001953125,0.00799560546875,0.12228940947209324,0
-0.029510498046875,-0.0489501953125,-0.00372314453125,0.05727873009509801,0
0.0205535888671875,-0.17572021484375,0.0133209228515625,0.17741896997128664,0
-0.017791748046875,0.1704864501953125,-0.02288818359375,0.1729336431900498,0
-0.0284423828125,0.1800689697265625,-0.0367431640625,0.18596737107289082,0
0.013092041015625,-0.061737060546875,0.030364990234375,0.07003498279329413,0
0.00457763671875,0.051177978515625,0.04315185546875,0.06709860559855556,0
0.0216217041015625,0.03094482421875,-0.0058441162109375,0.038199920529652986,0
0.0184173583984375,-0.12884521484375,-0.0058441162109375,0.1302860014460323,0
0.026947021484375,-0.0574798583984375,0.029296875,0.06991697199642886,0
-0.02099609375,0.0948486328125,0.0133209228515625,0.09805379179193695,0
0.0216217041015625,-0.0958251953125,0.0261077880859375,0.10164439356735086,0
0.03759765625,-0.1160736083984375,0.0474090576171875,0.1308979948902075,0
0.00457763671875,0.1385345458984375,0.009063720703125,0.13890617768191374,0
0.0067138671875,-0.02978515625,-0.0015869140625,0.030573678903430372,0
0.0077667236328125,-0.0713348388671875,0.032501220703125,0.07877379373490484,0
-0.0220489501953125,0.07354736328125,0.0250396728515625,0.08076110491352138,0
-0.01885986328125,-0.0606689453125,0.0037384033203125,0.0636426824364269,0
0.0237579345703125,-0.197021484375,0.0282440185546875,0.20044857032289642,0
-0.02099609375,0.0245513916015625,0.018646240234375,0.03729998736206338,0
-0.019927978515625,0.1278839111328125,-0.012237548828125,0.13000452551994118,0
0.00457763671875,-0.1245880126953125,0.030364990234375,0.12831664076506166,0
0.024810791015625,-0.0553436279296875,0.0463409423828125,0.07632807769207772,0
0.0429229736328125,0.142791748046875,-0.0079803466796875,0.149316947828749,0
-0.0124664306640625,0.1576995849609375,-0.0303497314453125,0.1610766190021271,0
0.0109710693359375,-0.0244598388671875,0.0271759033203125,0.038172998324178,0
-7.476806640625E-4,-0.02020263671875,0.0474090576171875,0.05153954113993452,0
0.005645751953125,0.0671539306640625,0.006927490234375,0.06774595958208349,0
0.0322723388671875,-0.08624267578125,-0.004791259765625,0.09220769573094256,0
-0.0039520263671875,-0.007415771484375,0.0026702880859375,0.008817177415551667,0
-0.008209228515625,0.0884552001953125,0.011199951171875,0.08953855471620562,0
3.204345703125E-4,0.0117645263671875,0.0143890380859375,0.018589006858803974,0
0.0088348388671875,0.00537109375,0.0122528076171875,0.016032289929522357,0
0.0077667236328125,0.1278839111328125,-0.016510009765625,0.12917893460264568,0
-0.017791748046875,0.0682220458984375,-0.014373779296875,0.0719541477359524,0
0.0120391845703125,-0.0319061279296875,0.0218505859375,0.040501741572378194,0
-0.0018157958984375,0.1012420654296875,-5.18798828125E-4,0.10125967647310538,0
-0.0252532958984375,0.08740234375,-0.0399322509765625,0.09935533863251829,0
0.0216217041015625,-0.15228271484375,-0.0058441162109375,0.15392100903621098,0
0.0184173583984375,0.01922607421875,0.0016021728515625,0.026672232341663184,0
0.001373291015625,0.1683502197265625,-0.02716064453125,0.17053264503181903,0
0.0312042236328125,-0.0351104736328125,0.0026702880859375,0.04704869147711651,0
0.0088348388671875,0.0767364501953125,0.00799560546875,0.07765608072262434,0
0.0109710693359375,0.1001739501953125,-0.016510009765625,0.10211642905315448,0
0.0194854736328125,-0.1373748779296875,-0.002655029296875,0.13877532183158084,0
0.0557098388671875,-0.0489501953125,-0.012237548828125,0.07516292549562341,0
0.003509521484375,0.04052734375,-0.0175628662109375,0.044308425858105634,0
-0.0156707763671875,-0.1608123779296875,0.0133209228515625,0.16212230294739932,0
0.038665771484375,-0.1938323974609375,0.051666259765625,0.20429254168497146,0
-0.029510498046875,0.09912109375,0.0143890380859375,0.10441697725087364,0
-0.006072998046875,0.02880859375,-0.0015869140625,0.02948448194172058,0
-7.476806640625E-4,-0.0319061279296875,0.0261077880859375,0.04123319808820579,0
-0.043365478515625,0.1374664306640625,0.0271759033203125,0.1466837210043487,0
-0.039093017578125,0.1470489501953125,0.0143890380859375,0.15283553969527391,0
-0.031646728515625,0.01495361328125,0.0271759033203125,0.04431315489989198,0
0.003509521484375,-0.0116729736328125,0.044219970703125,0.045869171166120486,0
0.0461273193359375,0.074615478515625,0.029296875,0.0924851669620641,0
-0.0135345458984375,0.07354736328125,-0.0069122314453125,0.07510111531698208,0
0.036529541015625,-0.094757080078125,0.0165252685546875,0.10289021378415425,0
0.0546417236328125,-0.1245880126953125,0.065521240234375,0.15099974765138746,0
-0.00714111328125,0.0596923828125,0.0506134033203125,0.07858684788432674,0
0.0067138671875,-0.0223236083984375,0.0452880859375,0.05093554979010793,0
-0.0050048828125,-0.01806640625,0.0687103271484375,0.07122185720410697,0
-0.0135345458984375,0.02667236328125,0.0740509033203125,0.07986322794777427,0
-0.0039520263671875,0.037322998046875,0.05487060546875,0.06647862844645035,0
0.003509521484375,0.06182861328125,0.06658935546875,0.0909353419913028,0
3.204345703125E-4,0.006439208984375,0.0836334228515625,0.08388155642646698,0
-0.0039520263671875,0.074615478515625,0.075103759765625,0.10594179004271805,0
-0.02099609375,0.128936767578125,0.0474090576171875,0.13897174076194058,0
-0.0135345458984375,-0.026580810546875,0.07830810546875,0.08379667537623821,0
-0.006072998046875,-0.0670623779296875,0.1038665771484375,0.12378412534486764,0
-0.0135345458984375,0.0021820068359375,0.086822509765625,0.08789819843723214,0
0.0067138671875,-0.016998291015625,0.086822509765625,0.0887252281601198,0
-0.0380401611328125,0.0831298828125,0.087890625,0.12681637606524224,0
-0.0263214111328125,-0.0468292236328125,0.099609375,0.11317164158023482,0
0.026947021484375,-0.0372467041015625,0.0964202880859375,0.10681915037990099,0
0.0088348388671875,0.0565032958984375,0.0804290771484375,0.09868897241406895,0
0.024810791015625,-0.030853271484375,0.0814971923828125,0.09060514377446083,0
-0.0039520263671875,0.0128326416015625,0.09002685546875,0.09102268897627833,0
-0.0039520263671875,0.004302978515625,0.086822509765625,0.08701886196977598,0
0.005645751953125,-0.0478973388671875,0.1049346923828125,0.11548731207864305,0
-0.0273895263671875,0.06396484375,0.075103759765625,0.10238291909060557,0
0.0120391845703125,-0.0329742431640625,0.0729827880859375,0.08098598665298605,0
0.01416015625,-0.016998291015625,0.09002685546875,0.09270537540006779,0
-0.017791748046875,0.1609039306640625,0.079376220703125,0.18029754744538296,0
-0.010345458984375,0.0085601806640625,0.099609375,0.1005103616672898,0
-0.0018157958984375,-0.003143310546875,0.10919189453125,0.10925221895807198,0
0.02801513671875,-0.028717041015625,0.0953521728515625,0.10344831171931998,0
0.0077667236328125,-0.085174560546875,0.0740509033203125,0.11313073871806915,0
0.005645751953125,0.03094482421875,0.0740509033203125,0.08045491248892028,0
0.0439910888671875,-0.1490936279296875,0.1262359619140625,0.20024895472717333,0
0.003509521484375,-0.05108642578125,0.1038665771484375,0.11580330517167794,0
0.001373291015625,0.0245513916015625,0.0729827880859375,0.07701392156346624,0
0.001373291015625,-0.0596160888671875,0.102813720703125,0.11885548007918771,0
-0.0220489501953125,0.00750732421875,0.099609375,0.10229635237647247,0
0.036529541015625,0.0767364501953125,0.0836334228515625,0.11923690524857714,0
-0.017791748046875,-0.00848388671875,0.0953521728515625,0.09736816471483026,0
-0.0220489501953125,0.121490478515625,0.0847015380859375,0.14973457559559994,0
0.036529541015625,-0.0436248779296875,0.1305084228515625,0.1423727002497129,0
-0.01885986328125,-0.00634765625,0.12518310546875,0.12675487003526054,0
-0.008209228515625,0.0117645263671875,0.09002685546875,0.0911626580297942,0
0.0226898193359375,-0.2055511474609375,0.121978759765625,0.24009356500740625,0
-0.008209228515625,-0.03936767578125,0.1400909423828125,0.14574867912589762,0
-0.0156707763671875,-0.0478973388671875,0.12518310546875,0.13494642713798977,0
-0.0135345458984375,-0.0894317626953125,0.1177215576171875,0.14845736505571017,0
-0.0348358154296875,0.0703582763671875,0.121978759765625,0.14506081112406907,0
0.0088348388671875,0.0128326416015625,0.124114990234375,0.12508901578141193,0
-0.0039520263671875,0.0011138916015625,0.110260009765625,0.11033643559777838,0
-0.0284423828125,0.177947998046875,0.076171875,0.19564409955314024,0
0.026947021484375,0.00750732421875,0.131561279296875,0.1345023125973496,0
-0.0028839111328125,-0.0106048583984375,0.134765625,0.13521299363120948,0
-0.0146026611328125,0.1491851806640625,0.0740509033203125,0.16719148340894338,0
0.02587890625,-0.0670623779296875,0.0836334228515625,0.1102797793802145,0
0.01416015625,-0.0436248779296875,0.0953521728515625,0.10580962558727255,0
0.017364501953125,-0.007415771484375,0.09002685546875,0.09198562007389934,0
0.0333404541015625,-0.1011505126953125,0.076171875,0.13093955337955981,0
0.00244140625,-0.06494140625,0.0601959228515625,0.0885827062024882,0
0.001373291015625,-0.0138092041015625,0.067657470703125,0.06906600747166745,0
0.00457763671875,-0.1618804931640625,0.075103759765625,0.17851281062125945,0
-0.0167236328125,-0.1277923583984375,0.0378265380859375,0.13431832988482587,0
-0.03057861328125,4.57763671875E-5,0.00799560546875,0.03160669853831521,0
-0.0380401611328125,-0.0020904541015625,0.0016021728515625,0.03813123149345379,0
-7.476806640625E-4,-0.038299560546875,-0.00372314453125,0.038487363766043184,0
0.00457763671875,-0.02020263671875,-0.02288818359375,0.03087021601057953,0
-0.02099609375,0.1012420654296875,-0.047393798828125,0.11374077515380619,0
-0.0135345458984375,0.060760498046875,-0.03887939453125,0.07339366031679988,0
-0.00927734375,-0.016998291015625,-0.0292816162109375,0.0351058976873143,0
-0.02099609375,-0.0329742431640625,-0.0420684814453125,0.05742729138759823,0
-0.0231170654296875,-0.042572021484375,-0.0633697509765625,0.07976528735094034,0
-0.019927978515625,-0.0777130126953125,-0.080413818359375,0.11359057554672206,0
3.204345703125E-4,-0.0659942626953125,-0.0878753662109375,0.1098973401576132,0
-0.0050048828125,-0.00634765625,-0.096405029296875,0.09674332672368854,0
-0.00927734375,-0.0244598388671875,-0.102783203125,0.10606007575473181,0
-0.0113983154296875,-0.01593017578125,-0.103851318359375,0.10568248871045967,0
-0.0220489501953125,0.0224151611328125,-0.1198272705078125,0.1238836971141796,0
-0.006072998046875,-0.005279541015625,-0.11663818359375,0.11691544265263826,0
-0.0113983154296875,-0.0329742431640625,-0.1134490966796875,0.11869254333914349,0
-0.0156707763671875,0.0234832763671875,-0.1219635009765625,0.12518839032173898,0
0.00244140625,-0.0233917236328125,-0.117706298828125,0.12003293707481826,0
0.005645751953125,-0.0798492431640625,-0.1017303466796875,0.12944821197899645,0
-0.0050048828125,0.01922607421875,-0.103851318359375,0.1057345123732644,0
0.005645751953125,-0.01806640625,-0.105987548828125,0.10766443264374932,0
0.005645751953125,-0.0436248779296875,-0.0985260009765625,0.10789984873914303,0
0.013092041015625,0.02667236328125,-0.091064453125,0.09578909710356968,0
-0.0028839111328125,0.0596923828125,-0.0782928466796875,0.0984950118049897,0
0.0184173583984375,0.029876708984375,-0.0633697509765625,0.07243992109979878,0
0.0237579345703125,0.1118927001953125,-0.0740203857421875,0.13624769105371132,0
-0.0028839111328125,0.105499267578125,-0.082550048828125,0.13398851803221273,0
0.0237579345703125,-0.0361785888671875,-0.0548553466796875,0.06987445031495372,0
0.0301361083984375,-0.0574798583984375,-0.035675048828125,0.07405962638169264,0
0.02801513671875,0.03839111328125,-0.03460693359375,0.05879086082977734,0
0.029083251953125,0.0330657958984375,-0.0250244140625,0.05064981442944804,0
-0.0028839111328125,-0.0681304931640625,-0.014373779296875,0.0696899316506739,0
0.0099029541015625,-0.0244598388671875,-0.0058441162109375,0.02702787286549521,0
0.0109710693359375,0.0352020263671875,5.340576171875E-4,0.03687590324681672,0
0.0088348388671875,0.0352020263671875,0.006927490234375,0.0369489804881365,0
0.0077667236328125,0.049041748046875,0.006927490234375,0.05013387246591886,0
-0.008209228515625,0.0831298828125,0.0058746337890625,0.08374055272923225,0
3.204345703125E-4,0.0011138916015625,0.020782470703125,0.02081476690573622,0
-0.0028839111328125,-0.0020904541015625,0.0282440185546875,0.028467727796405374,0
0.003509521484375,0.072479248046875,0.0101318359375,0.07326808471602175,0
3.204345703125E-4,0.0437164306640625,0.0101318359375,0.04487630875845352,0
-0.00927734375,0.0469207763671875,0.030364990234375,0.05665387006982819,0
0.00457763671875,0.07568359375,0.032501220703125,0.08249418444979699,0
-0.0113983154296875,0.119354248046875,0.00799560546875,0.12016358778049831,0
-0.031646728515625,0.107635498046875,-0.0058441162109375,0.11234353368052585,0
-0.0039520263671875,-0.005279541015625,0.018646240234375,0.01977812783406551,0
0.0077667236328125,0.0021820068359375,0.0250396728515625,0.026307192292866266,0
3.204345703125E-4,0.0671539306640625,0.0154571533203125,0.06891064265202591,0
0.01416015625,0.0479888916015625,0.0282440185546875,0.057455794540572334,0
-0.017791748046875,-0.063873291015625,0.055938720703125,0.08674954799670387,0
3.204345703125E-4,-0.05322265625,0.052734375,0.0749244160688633,0
0.01416015625,-0.0468292236328125,0.0484771728515625,0.0688732349955819,0
0.0322723388671875,-0.0713348388671875,0.0399627685546875,0.08790441378407404,0
0.029083251953125,0.0714111328125,0.030364990234375,0.0828698863620987,0
-0.008209228515625,0.07568359375,0.0346221923828125,0.08363070011143796,0
0.0194854736328125,-0.01593017578125,0.055938720703125,0.06133999231348811,0
-0.0050048828125,0.0011138916015625,0.0463409423828125,0.04662373373501995,0
3.204345703125E-4,0.072479248046875,0.020782470703125,0.07540063106022743,0
-0.0050048828125,-0.01593017578125,0.0346221923828125,0.03843846456065671,0
-0.0135345458984375,-0.014862060546875,0.0399627685546875,0.04473351815955693,0
0.0077667236328125,-0.003143310546875,0.0399627685546875,0.04083166991121112,0
0.0205535888671875,-0.06280517578125,0.0399627685546875,0.07722669869151863,0
0.029083251953125,-0.0255279541015625,0.0452880859375,0.05956947802912844,0
-0.0167236328125,-0.0233917236328125,0.0346221923828125,0.04500609774634639,0
0.0546417236328125,-0.0670623779296875,0.0506134033203125,0.10022373516694295,0
0.038665771484375,-0.096893310546875,0.064453125,0.12262773273399737,0
0.0067138671875,0.07568359375,0.0250396728515625,0.08000042244913276,0
0.015228271484375,0.004302978515625,0.029296875,0.03329748881332321,0
-0.017791748046875,-0.02978515625,0.0591278076171875,0.06855508343671919,0
0.001373291015625,0.03839111328125,0.052734375,0.06524322044341459,0
0.001373291015625,-0.04150390625,0.0388946533203125,0.056896873544419656,0
0.0120391845703125,-0.02764892578125,0.0591278076171875,0.06637396097559839,0
0.0312042236328125,-0.0564117431640625,0.086822509765625,0.10813943102003439,0
0.0322723388671875,-0.052154541015625,0.0335693359375,0.06991781117708006,0
0.0216217041015625,-0.0212554931640625,0.0037384033203125,0.030549463780700895,0
0.0194854736328125,-0.0659942626953125,0.0601959228515625,0.09142469862867589,0
0.013092041015625,-0.1075439453125,0.1038665771484375,0.15008453471249167,0
0.017364501953125,-0.05108642578125,0.053802490234375,0.07619748540866203,0
0.040802001953125,-0.0223236083984375,5.340576171875E-4,0.04651270872404747,0
0.003509521484375,-0.016998291015625,0.030364990234375,0.03497558105928844,0
-0.039093017578125,-0.0010223388671875,0.0804290771484375,0.08943235237358046,0
0.01629638671875,-0.05108642578125,0.09002685546875,0.10478659181775796,0
0.0067138671875,-0.07666015625,0.03143310546875,0.08312578233192976,0
-0.010345458984375,0.039459228515625,-0.0207672119140625,0.0457748438263778,0
3.204345703125E-4,-0.050018310546875,0.030364990234375,0.05851467081178162,0
-0.006072998046875,-0.0702667236328125,0.079376220703125,0.10618322922419815,0
-0.0252532958984375,0.1182861328125,0.042083740234375,0.1280639658982369,0
-0.0124664306640625,-0.00634765625,0.0133209228515625,0.019317132783809348,0
-0.0167236328125,-0.0904998779296875,0.0367584228515625,0.09910140993078725,0
-0.02099609375,0.074615478515625,0.0271759033203125,0.08213912166653267,0
-0.029510498046875,0.07354736328125,0.0058746337890625,0.07946442891479413,0
-0.02099609375,0.04052734375,-0.004791259765625,0.045893983421916536,0
0.0109710693359375,-0.05108642578125,0.0261077880859375,0.05841064851734941,0
-0.019927978515625,-0.038299560546875,0.03143310546875,0.05340431429400172,0
0.00244140625,0.0011138916015625,0.006927490234375,0.0074290874220816336,0
-0.01885986328125,-0.0553436279296875,-5.18798828125E-4,0.05847119587994752,0
-0.0273895263671875,-0.0127410888671875,0.0218505859375,0.03728229614646208,0
-0.0028839111328125,-0.0372467041015625,0.0388946533203125,0.05392984300699019,0
-0.01885986328125,0.0021820068359375,0.0048065185546875,0.019584642387239937,0
0.00457763671875,0.053314208984375,-0.0069122314453125,0.053954968085543585,0
0.003509521484375,-0.00634765625,0.0218505859375,0.023022979536313853,0
-0.03057861328125,0.0565032958984375,0.0101318359375,0.06504097275606384,0
-0.010345458984375,-0.003143310546875,-5.18798828125E-4,0.010824882217167302,0
3.204345703125E-4,-0.0553436279296875,0.0154571533203125,0.057462539271260764,0
-0.0263214111328125,0.0714111328125,0.00799560546875,0.07652644170741878,0
-0.0156707763671875,0.018157958984375,5.340576171875E-4,0.023991038409521232,0
-0.0241851806640625,-0.0596160888671875,0.0143890380859375,0.06592454347670752,0
-7.476806640625E-4,-0.040435791015625,0.0250396728515625,0.047566768210043325,0
0.017364501953125,-0.061737060546875,0.0133209228515625,0.0655014317298933,0
-0.008209228515625,0.0011138916015625,-0.0015869140625,0.008435074603318122,0
-0.0113983154296875,-0.0106048583984375,0.01971435546875,0.025120518064598023,0
0.0205535888671875,-0.040435791015625,0.041015625,0.06115377915158881,0
-0.0220489501953125,0.0714111328125,-0.0079803466796875,0.07516243760953928,0
-0.0156707763671875,0.107635498046875,-0.0314178466796875,0.11321684840048139,0
-0.006072998046875,-0.0574798583984375,0.0261077880859375,0.06342264599905931,0
-0.00927734375,0.049041748046875,0.032501220703125,0.05956082190284208,0
-0.0050048828125,0.0916595458984375,0.0016021728515625,0.09181006570153903,0
-0.01885986328125,-0.0319061279296875,5.340576171875E-4,0.03706724510928082,0
-7.476806640625E-4,0.0021820068359375,0.018646240234375,0.018788359563450877,0
-0.010345458984375,0.0682220458984375,0.0058746337890625,0.06925162373779761,0
-0.019927978515625,0.0948486328125,-0.012237548828125,0.09768902228725808,0
0.0120391845703125,-0.0233917236328125,0.017578125,0.031640246177101,0
0.0226898193359375,-0.016998291015625,0.0250396728515625,0.03782532241055768,0
-0.00927734375,0.086334228515625,-0.0058441162109375,0.08702770716691761,0
0.005645751953125,-0.02764892578125,0.006927490234375,0.02905731806138768,0
0.00457763671875,-0.1544189453125,0.044219970703125,0.16069091834431387,0
0.0120391845703125,-0.026580810546875,0.0250396728515625,0.03845083446376928,0
0.01629638671875,-0.042572021484375,-0.0079803466796875,0.046277804253023254,0
0.0216217041015625,-0.0574798583984375,0.0048065185546875,0.06159979570076922,0
0.0194854736328125,0.01495361328125,0.03143310546875,0.03989153233795073,0
0.013092041015625,0.065032958984375,0.0250396728515625,0.07090608231126216,0
0.03973388671875,-0.00421142578125,0.0218505859375,0.04554081649137955,0
0.0322723388671875,-0.075592041015625,0.0165252685546875,0.08383761102077669,0
-0.0050048828125,0.05010986328125,-0.004791259765625,0.050586593284922064,0
-0.03057861328125,0.07354736328125,-0.0111846923828125,0.08043235405933699,0
0.00244140625,-0.038299560546875,0.029296875,0.048281711727391236,0
-0.0018157958984375,-0.0233917236328125,0.0388946533203125,0.045423164862941436,0
-0.0050048828125,0.0948486328125,-0.0090484619140625,0.0954106213237161,0
-0.00927734375,-0.028717041015625,-0.0090484619140625,0.03150574891601519,0
-0.01885986328125,-0.0361785888671875,0.0250396728515625,0.047870345224592874,0
-0.0231170654296875,0.0565032958984375,0.0154571533203125,0.06297574731779278,0
-0.01885986328125,-0.0446929931640625,0.0016021728515625,0.04853581192064951,0
-0.0380401611328125,0.00750732421875,-0.0058441162109375,0.039211828192813346,0
-0.0284423828125,0.0692901611328125,-0.0058441162109375,0.07512821882722136,0
-0.04229736328125,0.01495361328125,0.00799560546875,0.04556980576569443,0
0.0109710693359375,0.01708984375,0.0101318359375,0.02269540088294936,0
-0.0284423828125,0.051177978515625,-0.0015869140625,0.05857194653791463,0
0.0109710693359375,0.0831298828125,-0.014373779296875,0.08507377568951083,0
-0.006072998046875,-0.0319061279296875,0.0122528076171875,0.03471330579542577,0
-0.0028839111328125,0.074615478515625,0.00799560546875,0.07509804447753324,0
0.050384521484375,-0.141632080078125,0.0452880859375,0.15700081796076173,0
0.0194854736328125,-0.0713348388671875,0.011199951171875,0.07479158926747725,0
0.040802001953125,0.0948486328125,-0.02288818359375,0.10575885522264541,0
0.036529541015625,-0.15228271484375,0.0335693359375,0.16016033504672694,0
0.0120391845703125,0.0245513916015625,0.0356903076171875,0.044961214980256,0
-0.0050048828125,0.1044464111328125,-0.0196990966796875,0.10640562043654946,0
0.005645751953125,-0.0894317626953125,0.0016021728515625,0.0896241131155739,0
0.03546142578125,-0.1363067626953125,0.0463409423828125,0.14827180856738237,0
3.204345703125E-4,0.0692901611328125,0.0037384033203125,0.06939167650021359,0
0.0120391845703125,0.016021728515625,-0.037811279296875,0.0427940485559935,0
-0.0124664306640625,-0.04150390625,-0.014373779296875,0.04565732864268276,0
-0.0337677001953125,0.144927978515625,-0.0090484619140625,0.14908471147678493,0
-0.0167236328125,-0.073455810546875,0.009063720703125,0.07587876534663685,0
0.003509521484375,-0.120330810546875,-5.18798828125E-4,0.12038309623921989,0
-0.0167236328125,0.1023101806640625,-0.03460693359375,0.10929177834916338,0
-0.0167236328125,0.049041748046875,-0.0101165771484375,0.05279316318559423,0
-7.476806640625E-4,-0.028717041015625,0.0218505859375,0.036092597258725705,0
0.0077667236328125,0.107635498046875,-0.012237548828125,0.10860699810375049,0
3.204345703125E-4,0.0479888916015625,-0.02716064453125,0.055142878115068385,0
-0.0167236328125,-0.0340423583984375,-0.004791259765625,0.0382298081334015,0
-0.0220489501953125,0.00537109375,0.0133209228515625,0.026314479633919044,0
-0.0263214111328125,0.051177978515625,-0.0069122314453125,0.05796361887013169,0
0.00457763671875,0.0330657958984375,-0.0335540771484375,0.04733051562796744,0
-7.476806640625E-4,-0.007415771484375,-0.0314178466796875,0.032289840245381105,0
0.00244140625,-0.00421142578125,0.0016021728515625,0.00512479555053664,0
0.0077667236328125,0.0011138916015625,-0.016510009765625,0.018279583500439844,0
0.015228271484375,0.037322998046875,-0.02716064453125,0.04860665640590581,0
0.003509521484375,-0.0244598388671875,0.0037384033203125,0.02499152091897149,0
0.001373291015625,-0.08624267578125,0.017578125,0.08802656151775455,0
0.0461273193359375,0.016021728515625,-0.002655029296875,0.04890270497953267,0
-0.039093017578125,0.1800689697265625,-0.05059814453125,0.19108445805913818,0
0.026947021484375,-0.0478973388671875,-0.0133056640625,0.056545006265643495,0
0.0216217041015625,-0.1256561279296875,0.0474090576171875,0.1360315379560465,0
0.001373291015625,0.0948486328125,0.022918701171875,0.09758799074691389,0
0.00457763671875,-0.15228271484375,0.0143890380859375,0.1530294887110007,0
-0.0039520263671875,-0.0702667236328125,0.0016021728515625,0.0703960078437924,0
-0.0167236328125,0.03839111328125,0.0271759033203125,0.04992080923518837,0
0.00457763671875,-0.2151336669921875,0.064453125,0.22462781384703875,0
-0.0039520263671875,-0.028717041015625,-0.004791259765625,0.029380999425508498,0
-0.0273895263671875,0.1576995849609375,-0.0410003662109375,0.1652282520663515,0
-0.0241851806640625,-0.110748291015625,0.04315185546875,0.12129381499907899,0
0.001373291015625,-0.00848388671875,0.0601959228515625,0.060806343337035516,0
0.013092041015625,0.0937957763671875,-0.0196990966796875,0.09673212295961425,0
0.0780792236328125,-0.0841064453125,-0.0175628662109375,0.11609786206365123,0
0.0109710693359375,-0.04150390625,5.340576171875E-4,0.042932782508488934,0
-0.0273895263671875,0.219482421875,-0.0079803466796875,0.22132872746180587,0
0.06103515625,-0.1352386474609375,0.051666259765625,0.1571120124742048,0
0.0109710693359375,-0.014862060546875,0.0143890380859375,0.023415585047388554,0
-0.0135345458984375,0.1342620849609375,-0.0442047119140625,0.14199840825213558,0
0.02801513671875,-0.2279205322265625,0.0058746337890625,0.2297109666906771,0
0.001373291015625,0.0469207763671875,-0.0058441162109375,0.0473032649761109,0
-0.0348358154296875,0.197113037109375,-0.0410003662109375,0.2043235509298037,0
-0.0018157958984375,-0.09796142578125,-0.0069122314453125,0.09822177456854311,0
-0.0028839111328125,-0.0681304931640625,0.020782470703125,0.0712880924890446,0
-0.0018157958984375,0.121490478515625,-0.012237548828125,0.12211875812511797,0
0.0226898193359375,-0.042572021484375,-0.026092529296875,0.05484546471561573,0
0.0301361083984375,-0.0681304931640625,-0.0079803466796875,0.07492419543317594,0
0.005645751953125,0.1033782958984375,-0.0175628662109375,0.10501143198492441,0
0.0077667236328125,-0.0127410888671875,-0.00372314453125,0.015379178999889241,0
0.0067138671875,-0.110748291015625,0.017578125,0.11233543721376875,0
0.00244140625,-0.0361785888671875,0.0143890380859375,0.0390114749008171,0
0.003509521484375,-0.1469573974609375,0.0026702880859375,0.14702354861723052,0
0.003509521484375,-0.1032867431640625,-0.0090484619140625,0.10374171156048342,0
-0.010345458984375,-0.00421142578125,-5.18798828125E-4,0.011181850514670032,0
0.0088348388671875,-0.0681304931640625,0.0218505859375,0.07209207017695918,0
-0.0167236328125,-0.054290771484375,0.0101318359375,0.057704608674527626,0
0.0067138671875,0.062896728515625,-0.016510009765625,0.06537319705384353,0
-0.00714111328125,0.0011138916015625,0.0037384033203125,0.008137070282417384,0
-0.043365478515625,0.06182861328125,0.01971435546875,0.0780512521278149,0
-0.0380401611328125,0.095916748046875,-0.0015869140625,0.10319687355312562,0
-0.04443359375,-0.0116729736328125,-0.02288818359375,0.05132710312489476,0
-0.01885986328125,-0.019134521484375,-0.0207672119140625,0.03395734745393152,0
-0.0135345458984375,4.57763671875E-5,-0.0133056640625,0.018979639730427135,0
-0.0124664306640625,-0.06280517578125,-0.0058441162109375,0.06429662271614686,0
3.204345703125E-4,-0.0106048583984375,-0.026092529296875,0.02816710466258543,0
-0.010345458984375,-0.014862060546875,-0.0314178466796875,0.03626279712439065,0
0.0120391845703125,-0.0106048583984375,-0.0101165771484375,0.01896707990095599,0
0.0077667236328125,0.065032958984375,-0.01544189453125,0.06729086012948667,0
0.0099029541015625,0.04052734375,-0.012237548828125,0.04347748489378222,0
0.0216217041015625,-0.061737060546875,0.0154571533203125,0.0672152238856026,0
0.029083251953125,-0.00848388671875,-0.004791259765625,0.03067194236052273,0
0.0120391845703125,0.0245513916015625,-0.0410003662109375,0.04928227697785797,0
0.0226898193359375,-0.0329742431640625,-0.01544189453125,0.04290198970274519,0
0.01629638671875,0.0469207763671875,-0.00372314453125,0.049809570166658226,0
-0.017791748046875,0.0703582763671875,-0.0101165771484375,0.07327467833518823,0
0.03546142578125,-0.0606689453125,-0.0069122314453125,0.07061170290627315,0
0.029083251953125,0.0831298828125,-0.01544189453125,0.08941400934586918,0
-0.031646728515625,0.142791748046875,-0.026092529296875,0.14856587367606391,0
-0.0018157958984375,-0.08624267578125,0.0218505859375,0.08898620312422965,0
0.01416015625,-0.1192626953125,0.0474090576171875,0.12911901200975953,0
0.00244140625,0.065032958984375,0.0101318359375,0.06586273846573157,0
-0.0135345458984375,-0.0585479736328125,0.00799560546875,0.060621603871865055,0
0.0109710693359375,-0.134185791015625,0.055938720703125,0.14579208259286633,0
0.00457763671875,-0.014862060546875,0.0697784423828125,0.0714903253804269,0
0.0194854736328125,-0.0212554931640625,0.030364990234375,0.04187496034954813,0
0.0557098388671875,-0.0723876953125,0.017578125,0.09301911125021005,0
-0.0284423828125,0.0596923828125,0.029296875,0.07232189565167983,0
-0.0252532958984375,0.025604248046875,0.0474090576171875,0.059505673812920955,0
-0.00714111328125,-0.0138092041015625,0.052734375,0.05497821317080868,0
-0.0124664306640625,0.1023101806640625,0.041015625,0.11092820405629765,0
-0.0124664306640625,0.074615478515625,0.0239715576171875,0.07935689700468204,0
-0.0156707763671875,0.03094482421875,0.030364990234375,0.04609976149410567,0
0.02801513671875,0.0799407958984375,0.03143310546875,0.09035164001641285,0
-0.0028839111328125,0.1225433349609375,0.0250396728515625,0.12510863720496584,0
-0.01885986328125,0.06396484375,0.0367584228515625,0.07614707695954999,0
-7.476806640625E-4,-0.0691986083984375,0.0612640380859375,0.09242450320802877,0
-0.006072998046875,0.025604248046875,0.0378265380859375,0.04607934251798879,0
-0.01885986328125,0.084197998046875,0.0037384033203125,0.08636534592922286,0
-0.0050048828125,-0.030853271484375,0.03143310546875,0.04432847090375402,0
0.0088348388671875,-0.04150390625,0.0591278076171875,0.07277861118098566,0
-0.0018157958984375,0.07568359375,0.030364990234375,0.08156798458705174,0
-0.0124664306640625,0.1278839111328125,-0.00372314453125,0.1285440330210918,0
-0.01885986328125,-0.0223236083984375,0.0495452880859375,0.057521939348676096,0
-0.00714111328125,-0.0585479736328125,0.08575439453125,0.1040801465065525,0
-0.019927978515625,0.03094482421875,0.018646240234375,0.04126001391815777,0
3.204345703125E-4,-0.003143310546875,-0.0196990966796875,0.019950876910642852,0
-0.0231170654296875,0.0319976806640625,0.011199951171875,0.041032781872694865,0
-0.055084228515625,0.1609039306640625,0.022918701171875,0.17160889836402055,0
-0.0135345458984375,0.0352020263671875,0.0271759033203125,0.04648544196098438,0
0.0120391845703125,-0.0713348388671875,0.0356903076171875,0.0806684526883659,0
0.01416015625,0.065032958984375,0.0037384033203125,0.0666616189322847,0
0.0077667236328125,-0.063873291015625,5.340576171875E-4,0.06434597515535595,0
-7.476806640625E-4,-0.0937042236328125,0.0346221923828125,0.09989863241504375,0
0.013092041015625,0.039459228515625,0.0250396728515625,0.048532643339472006,0
-0.0039520263671875,0.05010986328125,-0.0079803466796875,0.050895017866197,0
-0.019927978515625,-0.014862060546875,0.0016021728515625,0.02491128517889982,0
-0.00714111328125,-0.0585479736328125,0.018646240234375,0.061859057463577456,0
0.01629638671875,-0.0138092041015625,0.011199951171875,0.02411856638065468,0
0.01416015625,0.02667236328125,-0.0079803466796875,0.03123477102780468,0
0.0077667236328125,0.00323486328125,-0.00372314453125,0.009200442469655712,0
0.017364501953125,-0.01593017578125,0.00799560546875,0.024884254767091395,0
0.00244140625,-0.0244598388671875,0.006927490234375,0.025538878261068484,0
0.005645751953125,-0.026580810546875,0.0058746337890625,0.027801534608734656,0
-0.0018157958984375,-0.02764892578125,0.0165252685546875,0.032262125044801325,0
0.003509521484375,-0.05322265625,0.0250396728515625,0.05892328144178861,0
-0.017791748046875,-0.0138092041015625,5.340576171875E-4,0.022528329587889265,0
-0.0028839111328125,-0.003143310546875,-0.004791259765625,0.0064151005259272765,0
0.01629638671875,-0.052154541015625,0.011199951171875,0.05577730071355144,0
0.013092041015625,0.07354736328125,0.0026702880859375,0.07475123157541197,0
-0.0284423828125,0.1065673828125,-0.0090484619140625,0.110668201768028,0
-0.006072998046875,-0.0340423583984375,0.0282440185546875,0.04464849442839643,0
0.017364501953125,-0.07666015625,0.0335693359375,0.08547049666194309,0
0.00457763671875,0.0341339111328125,-0.0292816162109375,0.045204996350804265,0
0.0301361083984375,-0.042572021484375,-0.0324859619140625,0.06144835037777972,0
0.001373291015625,-0.0841064453125,0.0101318359375,0.08472564057463694,0
0.003509521484375,0.05224609375,0.011199951171875,0.053548202205447225,0
-0.0263214111328125,-0.0095367431640625,-0.004791259765625,0.02840285767914094,0
0.0099029541015625,-0.0436248779296875,-0.00372314453125,0.04488942280224113,0
0.0418548583984375,-0.016998291015625,-0.0069122314453125,0.04570065658782922,0
-0.029510498046875,0.1576995849609375,-0.0484619140625,0.1675964967009385,0
-0.0018157958984375,0.0011138916015625,-0.012237548828125,0.012421572789528606,0
0.00457763671875,-0.0958251953125,0.0378265380859375,0.1031225959631278,0
-0.0241851806640625,0.12042236328125,-0.0069122314453125,0.12302132939270433,0
0.0322723388671875,-0.0691986083984375,-0.016510009765625,0.07811870251546629,0
-0.0348358154296875,-0.02978515625,-0.004791259765625,0.04608303092928963,0
0.003509521484375,0.0905914306640625,0.01971435546875,0.0927781216794087,0
0.001373291015625,-0.007415771484375,0.017578125,0.019127730483193522,0
0.00457763671875,0.16729736328125,-0.012237548828125,0.16780679402249518,0
0.0194854736328125,0.03094482421875,0.011199951171875,0.038245323045788905,0
-0.04229736328125,0.02667236328125,0.0122528076171875,0.05148410626646652,0
0.015228271484375,0.037322998046875,0.011199951171875,0.041837128747815,0
0.0301361083984375,-0.10968017578125,0.0133209228515625,0.11452236888235222,0
-0.0241851806640625,-0.02020263671875,-0.0090484619140625,0.03278634101502283,0
0.01629638671875,-0.0798492431640625,-5.18798828125E-4,0.08149688954913983,0
0.04931640625,-0.15228271484375,0.0356903076171875,0.16399979031513237,0
-0.01885986328125,0.1928558349609375,-0.002655029296875,0.19379400584650464,0
0.0120391845703125,0.1300048828125,-0.01544189453125,0.13147115131055997,0
-0.00927734375,0.051177978515625,0.0346221923828125,0.0624816036717522,0
-0.0113983154296875,0.166229248046875,0.0708465576171875,0.18105612176082203,0
-0.00927734375,0.0234832763671875,0.0825653076171875,0.08633981351563236,0
0.0439910888671875,-0.03936767578125,0.0143890380859375,0.060762440809903,0
0.0226898193359375,0.025604248046875,-0.0111846923828125,0.03599309327136985,0
0.0077667236328125,0.01708984375,0.0239715576171875,0.030447008555555048,0
0.001373291015625,-0.0723876953125,0.0623321533203125,0.09553618004931888,0
0.01629638671875,0.0096282958984375,0.042083740234375,0.04614452832253541,0
0.00457763671875,0.01922607421875,0.0143890380859375,0.024446699262524,0
-0.0497589111328125,0.0224151611328125,0.022918701171875,0.0591916847972651,0
-0.04443359375,-0.0127410888671875,0.0708465576171875,0.08459263753582268,0
-0.043365478515625,0.0447845458984375,0.064453125,0.0896684203077316,0
-0.0263214111328125,0.0714111328125,0.0282440185546875,0.08117937643086816,0
0.036529541015625,-0.087310791015625,-0.00372314453125,0.09471770372948739,0
0.00244140625,0.0341339111328125,0.009063720703125,0.03540106476766676,0
-0.0476226806640625,0.2024383544921875,0.0239715576171875,0.20934144992745699,0
-0.0146026611328125,-0.0010223388671875,0.0612640380859375,0.06298861207801229,0
-0.0518798828125,0.131072998046875,0.076171875,0.16023048273861767,0
-0.0028839111328125,0.1715545654296875,0.0346221923828125,0.17503708769453225,0
-0.0167236328125,-0.0681304931640625,0.017578125,0.07232174273163859,0
0.0216217041015625,0.00323486328125,0.0452880859375,0.05028889695137774,0
0.0088348388671875,0.0671539306640625,0.0495452880859375,0.08391924900141458,0
-0.0284423828125,0.0778045654296875,0.011199951171875,0.08359400964188585,0
0.017364501953125,-0.040435791015625,0.0570068359375,0.07201637637887943,0
-0.03057861328125,-0.042572021484375,0.1070709228515625,0.11921246211598674,0
-0.0359039306640625,0.0117645263671875,0.0570068359375,0.0683906109153815,0
0.0120391845703125,-0.0819854736328125,0.0218505859375,0.08569718757186094,0
0.01416015625,0.072479248046875,0.00799560546875,0.07428109536939229,0
3.204345703125E-4,0.0554351806640625,0.01971435546875,0.05883721394763125,0
-0.0273895263671875,-0.028717041015625,0.0484771728515625,0.06264894960805181,0
-0.039093017578125,-0.0904998779296875,0.0495452880859375,0.11033235019780223,0
0.0194854736328125,-0.1245880126953125,0.009063720703125,0.12642787518204454,0
-0.0028839111328125,-0.099029541015625,0.006927490234375,0.09931342838777985,0
3.204345703125E-4,-0.061737060546875,0.042083740234375,0.07471685563108711,0
-0.017791748046875,-0.122467041015625,0.064453125,0.13953109960131427,0
0.001373291015625,0.00323486328125,0.041015625,0.041165905344138866,0
0.0194854736328125,0.0426483154296875,-0.0111846923828125,0.0482043549420931,0
0.0237579345703125,0.1534423828125,-0.0314178466796875,0.1584174402905608,0
0.015228271484375,0.029876708984375,0.0154571533203125,0.03692480982898234,0
-0.0156707763671875,-0.1821136474609375,0.0463409423828125,0.18856944812032564,0
-0.0167236328125,0.1140289306640625,0.0239715576171875,0.11771538768330604,0
0.017364501953125,-0.01806640625,-0.014373779296875,0.02888817221884059,0
0.0099029541015625,-0.1150054931640625,-5.18798828125E-4,0.11543223600914497,0
-0.0263214111328125,0.062896728515625,0.0218505859375,0.07159792767813083,0
0.00457763671875,-0.02020263671875,0.0346221923828125,0.04034597245960387,0
-0.02099609375,-0.1192626953125,0.0367584228515625,0.1265527877863434,0
-0.0220489501953125,0.08740234375,0.009063720703125,0.09059512641799664,0
-0.0039520263671875,0.1140289306640625,0.0037384033203125,0.11415862297777528,0
0.0109710693359375,-0.17572021484375,0.0101318359375,0.1763536570830671,0
-0.0124664306640625,0.053314208984375,0.0154571533203125,0.056892357675694345,0
3.204345703125E-4,0.1417236328125,0.006927490234375,0.14189320243349762,0
-0.0050048828125,-0.05322265625,0.006927490234375,0.05390445353790244,0
-0.0146026611328125,0.0565032958984375,0.0154571533203125,0.06037204442715009,0
0.00244140625,-0.0233917236328125,0.0122528076171875,0.02651913447862177,0
0.062103271484375,-0.0010223388671875,0.00799560546875,0.06262420628345922,0
0.00244140625,-0.0819854736328125,-0.00372314453125,0.08210627355126227,0
-0.029510498046875,0.105499267578125,-0.004791259765625,0.1096536416387396,0
-0.0028839111328125,0.0437164306640625,0.041015625,0.06001437117531407,0
-0.0167236328125,-0.2737274169921875,0.0356903076171875,0.2765504958691481,0
-0.008209228515625,0.23333740234375,0.011199951171875,0.2337502378000998,0
0.026947021484375,0.05224609375,-0.0079803466796875,0.0593252240799911,0
-0.010345458984375,-0.178924560546875,0.011199951171875,0.17957300964995299,0
