gyro_x,gyro_y,gyro_z,gyro_angvel,label
0.1201934814453125,-0.872528076171875,-0.0591583251953125,0.8827521872700471,0
-0.012969970703125,-0.02032470703125,0.003692626953125,0.024391583584527865,0
-0.17169189453125,0.83935546875,-0.005889892578125,0.8567557413889001,0
0.0445556640625,-0.2514801025390625,-0.05596923828125,0.2614574627102678,0
0.064788818359375,-0.2621307373046875,-0.07513427734375,0.2802771379479081,0
-0.0438690185546875,0.290740966796875,-0.07940673828125,0.3045656425918722,0
-0.0438690185546875,0.095794677734375,-0.066619873046875,0.12465680308738075,0
0.0040740966796875,-0.1172637939453125,-0.0016326904296875,0.1173459045397126,0
0.043487548828125,-0.27703857421875,0.1123504638671875,0.30209959490109983,0
-0.0428009033203125,-0.224853515625,0.15069580078125,0.274044239470672,0
-0.0289459228515625,0.290740966796875,0.0303192138671875,0.29374722288599503,0
0.076507568359375,0.0052490234375,-0.1028289794921875,0.1282761056733349,0
0.052001953125,0.16290283203125,-0.131591796875,0.21577288248852683,0
-0.003387451171875,0.2491912841796875,-0.0655517578125,0.25769129571809807,0
0.0701141357421875,-0.1833038330078125,-0.0272064208984375,0.19813247226119407,0
0.0498809814453125,-0.02777099609375,-0.0772705078125,0.09607326325043983,0
0.0498809814453125,0.0233612060546875,-0.1038970947265625,0.11759449200918162,0
-0.0055084228515625,0.0808868408203125,-0.05169677734375,0.09615394182211903,0
-0.080078125,0.0244293212890625,0.024993896484375,0.08737272288095135,0
0.022186279296875,-0.063995361328125,0.01434326171875,0.06923414199142487,0
0.0370941162109375,-0.1012725830078125,-0.03253173828125,0.11265177993331732,0
0.03070068359375,0.064910888671875,-0.052764892578125,0.08910717889192302,0
0.0722503662109375,-0.0341644287109375,-0.04425048828125,0.09135332134021375,0
-0.0257568359375,-0.0341644287109375,0.001556396484375,0.04281407661824084,0
0.0093994140625,-0.052276611328125,-0.010162353515625,0.05407833675000282,0
0.0562744140625,-0.1971435546875,-0.0580902099609375,0.2130888625109412,0
-0.022552490234375,-0.063995361328125,-0.0186767578125,0.0703764333401149,0
-0.0523834228515625,-0.110870361328125,0.0324554443359375,0.12684484963023818,0
-0.0055084228515625,-0.0363006591796875,-0.0250701904296875,0.044458913924793994,0
-0.0395965576171875,0.0691680908203125,-0.1262664794921875,0.14931622820781823,0
0.0743865966796875,-0.247222900390625,-0.0953826904296875,0.27522787990453473,0
-0.05877685546875,-0.1396331787109375,-0.00909423828125,0.15177235751490153,0
0.0381622314453125,-0.202484130859375,-0.0250701904296875,0.2075685274962052,0
0.0807647705078125,-0.038421630859375,-0.0815277099609375,0.12102040061307202,0
0.01153564453125,-0.050140380859375,-0.0836639404296875,0.0982180422106694,0
-0.012969970703125,0.1842193603515625,-0.017608642578125,0.1855129568569886,0
-0.0854034423828125,0.04998779296875,0.027130126953125,0.10260882615649429,0
-0.034271240234375,-0.4229888916015625,0.0516204833984375,0.4275029761671946,0
-0.0406646728515625,-0.110870361328125,0.024993896484375,0.12070852289969111,0
-0.1205596923828125,0.2843475341796875,-0.019744873046875,0.3094802411029566,0
-0.0534515380859375,0.140533447265625,-0.087921142578125,0.1741747514318755,0
-0.0438690185546875,-0.1002044677734375,-0.1028289794921875,0.15013069364428483,0
-0.0300140380859375,-0.08636474609375,-0.0719451904296875,0.11634355279097339,0
-0.0214996337890625,0.1682281494140625,-0.11029052734375,0.20230409024561616,0
-0.0289459228515625,0.314178466796875,-0.1177520751953125,0.3367662789849456,0
-0.001251220703125,-0.0330963134765625,-0.078338623046875,0.08505216857827433,0
0.0679931640625,-0.1044769287109375,-0.0889892578125,0.1531586987347436,0
0.0360260009765625,-0.0299072265625,-0.0932464599609375,0.10434182882368273,0
0.0488128662109375,-0.097015380859375,-0.085784912109375,0.1383970056635246,0
0.0275115966796875,-0.0906219482421875,-0.0612945556640625,0.11281067329437565,0
-0.071563720703125,-0.1044769287109375,-0.05596923828125,0.13845342317013523,0
-0.106719970703125,-0.346282958984375,-0.0570220947265625,0.36681406613822115,0
-0.01617431640625,-0.214202880859375,-0.052764892578125,0.2211981387092716,0
-0.2025909423828125,-0.1364288330078125,-0.03997802734375,0.2474957758866346,0
-0.1088409423828125,-0.2312469482421875,0.0047607421875,0.25562505056484486,0
-0.0332183837890625,-0.1800994873046875,0.00262451171875,0.18315614761926666,0
-0.1099090576171875,0.4675750732421875,-0.031463623046875,0.48134853239515657,1
-0.0843505859375,0.9693145751953125,-0.043182373046875,0.9739355647967828,1
0.0701141357421875,0.01483154296875,-0.0580902099609375,0.09225204166311754,1
-0.02362060546875,0.0340118408203125,-0.0836639404296875,0.09335091454784424,1
0.0605316162109375,0.34613037109375,-0.06768798828125,0.35784350505796236,1
0.0051422119140625,0.4313507080078125,-0.0240020751953125,0.43204857974062555,1
0.04241943359375,0.1352081298828125,0.2508392333984375,0.2880988853583746,1
0.145751953125,-0.24615478515625,0.2732086181640625,0.3955739616483728,1
0.02325439453125,-0.1460113525390625,0.17413330078125,0.22843486681387914,1
0.0264434814453125,0.2843475341796875,0.0292510986328125,0.28706864105339625,1
0.0807647705078125,0.3482666015625,-0.0602264404296875,0.3625462702137528,1
0.0392303466796875,-0.02777099609375,-0.05169677734375,0.07058898718905669,1
0.0743865966796875,-0.3889007568359375,-0.1049652099609375,0.40962770870058973,1
0.0797119140625,-0.3729248046875,-0.0815277099609375,0.38996623787988643,1
-0.05877685546875,0.173553466796875,-0.031463623046875,0.18591795005120987,1
-0.0864715576171875,0.0286865234375,0.060150146484375,0.10917090741477138,1
-0.0417327880859375,-0.562530517578125,0.173065185546875,0.590028615625135,1
-0.0651702880859375,-0.5827789306640625,0.1933135986328125,0.6174533147465647,1
-0.050262451171875,-0.1247100830078125,0.1560211181640625,0.20596482251779052,1
-0.034271240234375,0.5336151123046875,-0.07940673828125,0.540578427308761,1
-0.001251220703125,0.3088531494140625,-0.134796142578125,0.33698936705803545,1
0.0019378662109375,0.018035888671875,-0.029327392578125,0.03448397542435071,1
-0.01190185546875,0.1714324951171875,0.036712646484375,0.17572300065042773,1
-0.01617431640625,-0.106597900390625,0.093170166015625,0.14249702001894013,1
-0.0534515380859375,0.121368408203125,0.0889129638671875,0.15966487584049474,1
-0.0214996337890625,0.0638427734375,0.09637451171875,0.11758477997718597,1
0.033905029296875,-0.0703887939453125,0.050567626953125,0.09306566617377231,1
0.0679931640625,-0.2440185546875,-0.1422576904296875,0.29052603304591357,1
0.144683837890625,-0.268524169921875,-0.2168121337890625,0.3742273962942304,1
0.0264434814453125,0.4686431884765625,-0.1262664794921875,0.48607501443684437,1
-0.0736846923828125,0.424957275390625,0.0409698486328125,0.4332397122794363,1
0.0509490966796875,-0.1470794677734375,0.06866455078125,0.17012642601014294,1
-1.8310546875E-4,-0.5380401611328125,0.0324554443359375,0.5390181855804854,1
0.0349578857421875,-0.4783782958984375,0.0399169921875,0.4813119716229317,1
0.0019378662109375,0.0105743408203125,0.0644073486328125,0.06529838104535421,1
-0.0843505859375,0.1160430908203125,0.07293701171875,0.16093734170040197,1
0.0360260009765625,0.1064453125,-0.010162353515625,0.11283505983763413,1
0.063720703125,0.105377197265625,-0.1028289794921875,0.16043216863742615,1
0.0615997314453125,0.0169677734375,-0.0730133056640625,0.09702254920148601,1
0.0445556640625,-0.120452880859375,0.048431396484375,0.13725780077212324,1
-0.0108489990234375,0.084075927734375,0.0793304443359375,0.11610246251800034,1
0.05413818359375,0.154388427734375,0.00262451171875,0.16362645752715166,1
0.0839691162109375,0.00311279296875,-0.0964508056640625,0.12791895821401525,1
0.110595703125,-0.0714569091796875,-0.1028289794921875,0.1670667484648934,1
0.0264434814453125,0.0329437255859375,-0.0357208251953125,0.05532200393210835,1
-0.0257568359375,0.14373779296875,0.0303192138671875,0.14914161878752283,1
0.0040740966796875,-0.00860595703125,0.05908203125,0.059844357936276155,1
0.05413818359375,0.006317138671875,0.0420379638671875,0.06883341899055459,1
0.008331298828125,0.0350799560546875,-0.0261383056640625,0.04453341307322273,1
0.0445556640625,0.1533203125,-0.0815277099609375,0.17927379316738618,1
0.01898193359375,0.1916656494140625,-0.03253173828125,0.19533138243475265,1
-0.0055084228515625,-0.1129913330078125,0.01434326171875,0.11403119403885305,1
0.033905029296875,-0.188629150390625,0.00262451171875,0.19167001708789205,1
0.0360260009765625,-0.087432861328125,-0.0250701904296875,0.0978309380235476,1
-0.012969970703125,-0.0064697265625,-0.0165557861328125,0.02200389866157508,1
-0.0108489990234375,0.0894012451171875,-0.0165557861328125,0.09156624630719234,1
-0.0182952880859375,0.302459716796875,-0.0485076904296875,0.30687064682340615,1
-0.0172271728515625,0.2385406494140625,-0.0463714599609375,0.24361594612473364,1
0.022186279296875,0.0137786865234375,0.02392578125,0.03541929135051906,1
-0.03533935546875,-0.0789031982421875,0.07293701171875,0.1131123000219414,1
-0.0065765380859375,-0.0586700439453125,0.0335235595703125,0.06789148662391314,1
0.0168609619140625,0.00311279296875,-0.00909423828125,0.01940841793268886,1
0.0030059814453125,0.0638427734375,-0.0602264404296875,0.08781890326958208,1
0.008331298828125,0.0595703125,-0.099639892578125,0.11638788968140741,1
0.045623779296875,0.107513427734375,-0.07513427734375,0.13887341722767602,1
0.031768798828125,0.0361480712890625,-0.04425048828125,0.06537618335472073,1
0.057342529296875,-0.1374969482421875,-0.0229339599609375,0.15073003337612462,1
0.0488128662109375,-0.163055419921875,0.0100860595703125,0.17050364943684274,1
-0.003387451171875,-0.1800994873046875,0.0324554443359375,0.18303184427824648,1
-0.012969970703125,-0.198211669921875,0.036712646484375,0.20199976397299316,1
0.0147247314453125,-0.18756103515625,0.013275146484375,0.18860590960837426,1
-0.0076446533203125,-0.1023406982421875,-0.0229339599609375,0.10515714792906913,1
0.0062103271484375,0.0467987060546875,-0.0570220947265625,0.07402841575157969,1
-0.0065765380859375,0.037200927734375,-0.0421142578125,0.056575353190163075,1
-0.0555877685546875,-0.0480194091796875,-0.0229339599609375,0.07695342871078355,1
-0.0332183837890625,0.1117706298828125,-0.0250701904296875,0.1192671336711791,1
-0.0172271728515625,-0.0181884765625,-0.041046142578125,0.04808723307350912,1
0.0488128662109375,-0.060791015625,-0.06768798828125,0.1032468268084231,1
0.0615997314453125,-0.0810394287109375,-0.0687408447265625,0.12283004377452252,1
0.053070068359375,-0.1119232177734375,-0.019744873046875,0.12543165008906748,1
0.0349578857421875,-0.1353607177734375,0.0079498291015625,0.14002777393948704,1
-0.0087127685546875,-0.087432861328125,0.005828857421875,0.08805903221564063,1
-0.01617431640625,-0.038421630859375,-0.0303955078125,0.05159183195316206,1
-1.8310546875E-4,-0.2173919677734375,-0.0687408447265625,0.22800132656136313,1
-0.048126220703125,-7.62939453125E-5,-0.0506439208984375,0.06986376502808293,1
-0.0406646728515625,0.00311279296875,-0.0186767578125,0.044856731719750645,1
0.06585693359375,-0.4996795654296875,-0.021881103515625,0.5044755559008132,1
-0.0662384033203125,0.1682281494140625,-0.01123046875,0.1811473426745456,1
-0.174896240234375,0.8436126708984375,0.013275146484375,0.8616537952465,1
-0.0843505859375,0.2982025146484375,0.0654754638671875,0.31674405670710626,1
-0.012969970703125,-0.2195281982421875,0.0899810791015625,0.23760775357673566,1
-0.02362060546875,-0.01605224609375,0.0335235595703125,0.044039035566516956,1
-0.048126220703125,0.09686279296875,0.0100860595703125,0.1086290126003579,1
-0.038543701171875,-0.007537841796875,-0.0240020751953125,0.046027552321006054,1
-0.003387451171875,0.1224212646484375,-0.0378570556640625,0.12818579300030303,1
0.03070068359375,0.03826904296875,-0.0538330078125,0.0728357354120096,1
0.0509490966796875,-0.0703887939453125,-0.0612945556640625,0.10633633113666591,1
0.063720703125,-0.0778350830078125,-0.0421142578125,0.10905154223886594,1
0.043487548828125,-0.0703887939453125,-0.0133514404296875,0.08380936807840583,1
0.010467529296875,-0.08636474609375,0.0313873291015625,0.09248569059886311,1
0.0125885009765625,-0.224853515625,0.0569610595703125,0.23229751645924182,1
0.0147247314453125,-0.1587982177734375,0.04949951171875,0.16698470991246872,1
-0.0491943359375,0.2385406494140625,-0.0154876708984375,0.24405243711356908,1
-0.02789306640625,0.15118408203125,-0.0485076904296875,0.16120684180269024,1
0.0157928466796875,-0.099151611328125,-0.0154876708984375,0.10158899539354639,1
-0.0300140380859375,-0.1460113525390625,0.02392578125,0.15097218472597312,1
-0.02362060546875,0.0947265625,0.0452423095703125,0.10760074916575971,1
-0.0193634033203125,0.269439697265625,0.015411376953125,0.27057383907230953,1
-0.045989990234375,0.19061279296875,-0.05169677734375,0.202782821838623,1
0.0360260009765625,-0.0554656982421875,-0.06768798828125,0.09463604062628213,1
0.07757568359375,-0.1481475830078125,-0.0154876708984375,0.1679451130159869,1
-0.00445556640625,-0.132171630859375,0.0090179443359375,0.1325538207524531,1
-0.0214996337890625,-0.0938262939453125,4.8828125E-4,0.09625926504578707,1
0.0370941162109375,-0.0789031982421875,0.001556396484375,0.0872015511349027,1
0.01153564453125,-0.141754150390625,0.01220703125,0.14274565443353351,1
-0.0332183837890625,-0.0139312744140625,0.0164794921875,0.03961205739563695,1
-0.0257568359375,0.060638427734375,0.0100860595703125,0.06664954698468853,1
-0.01617431640625,-0.00433349609375,-0.0016326904296875,0.0168241902522299,1
-0.01190185546875,0.1107177734375,-0.0154876708984375,0.11242752095645844,1
-0.022552490234375,0.072357177734375,-0.02081298828125,0.07859616063556135,1
-0.0193634033203125,-0.0576019287109375,-0.031463623046875,0.06843159471034457,1
-0.0023193359375,-0.00860595703125,-0.0250701904296875,0.02660744752499749,1
-0.0204315185546875,-0.030975341796875,0.0164794921875,0.04060163066481006,1
-0.034271240234375,-0.052276611328125,0.0441741943359375,0.07654228533551415,1
-0.0300140380859375,-0.075714111328125,0.04736328125,0.09421650358190127,1
-0.0182952880859375,-0.0245819091796875,0.0313873291015625,0.043865159901630854,1
-0.0214996337890625,0.109649658203125,-0.029327392578125,0.1155221959302947,1
-0.0193634033203125,0.119232177734375,-0.0655517578125,0.13743466283196293,1
0.008331298828125,0.03826904296875,-0.029327392578125,0.04892878646910234,1
-0.022552490234375,-0.0064697265625,0.0047607421875,0.02394027660117861,1
-0.0257568359375,-0.003265380859375,0.0079498291015625,0.02715284685649212,1
0.0040740966796875,-0.0789031982421875,0.013275146484375,0.0801158066225573,1
-0.0087127685546875,-0.154541015625,0.0079498291015625,0.15499044367004727,1
-0.0140380859375,-0.0107269287109375,-5.645751953125E-4,0.01767635713345181,1
-0.0289459228515625,0.1128387451171875,-0.0037689208984375,0.1165532222381213,1
-0.0449371337890625,0.086212158203125,-0.00909423828125,0.09764521178804882,1
-0.01617431640625,0.0755615234375,-0.0069580078125,0.07758586345542699,1
-0.0332183837890625,0.0286865234375,0.015411376953125,0.046517611590439586,1
-0.0332183837890625,-0.15240478515625,0.03564453125,0.16000378798051126,1
-0.0108489990234375,-0.1023406982421875,0.03564453125,0.1089121292810918,1
-0.0300140380859375,0.1618499755859375,-0.0016326904296875,0.16461750440773867,1
-0.0097808837890625,0.1938018798828125,-0.05596923828125,0.2019588818734907,1
0.0040740966796875,0.0553131103515625,-0.0602264404296875,0.08187406529146009,1
-1.8310546875E-4,0.1032562255859375,-0.0144195556640625,0.10425835810819052,1
-0.0193634033203125,0.072357177734375,0.0175323486328125,0.07692779605845669,1
-0.038543701171875,-0.040557861328125,0.0303192138671875,0.0636381312191242,1
-0.0055084228515625,-0.1587982177734375,0.0420379638671875,0.16436060080332712,1
-0.0204315185546875,-0.0064697265625,0.050567626953125,0.05492166428573038,1
-0.0321502685546875,9.918212890625E-4,0.02606201171875,0.04139869481561258,1
0.0349578857421875,-0.0011444091796875,-0.0154876708984375,0.038252207750569076,1
0.010467529296875,0.048919677734375,-0.017608642578125,0.05303553839323401,1
-0.001251220703125,0.097930908203125,0.0218048095703125,0.10033682302691478,1
0.010467529296875,-0.0554656982421875,0.0782623291015625,0.09649354904591091,1
-0.0108489990234375,-0.09808349609375,0.0910491943359375,0.13426849509474117,1
-1.8310546875E-4,0.0435943603515625,0.058013916015625,0.07256801108989112,1
0.00726318359375,0.06170654296875,0.01434326171875,0.0637666091132598,1
-0.0055084228515625,-0.0128631591796875,-0.008026123046875,0.01613140531873069,1
0.01153564453125,-0.003265380859375,0.0164794921875,0.020379093936335937,1
-0.034271240234375,0.0318756103515625,0.046295166015625,0.06583171605617738,1
-0.0257568359375,0.0286865234375,0.0633392333984375,0.07414977890690753,1
-1.8310546875E-4,-0.0341644287109375,0.08251953125,0.08931245576333205,1
-0.026824951171875,-0.095947265625,0.08038330078125,0.1280114480457771,1
-1.8310546875E-4,-0.083160400390625,0.058013916015625,0.10139674635909053,1
-0.0023193359375,0.0052490234375,0.0452423095703125,0.045604803930007126,1
-0.0087127685546875,0.06170654296875,0.038848876953125,0.0734359926845194,1
0.0019378662109375,0.10858154296875,0.03564453125,0.11429890378721146,1
-0.0023193359375,0.051055908203125,0.0335235595703125,0.06112212470048138,1
0.0275115966796875,-0.014984130859375,0.0452423095703125,0.05502979833447199,1
0.01153564453125,0.0819549560546875,0.062286376953125,0.1035822314425785,1
-1.8310546875E-4,0.0691680908203125,0.060150146484375,0.09166405204567085,1
0.0275115966796875,-0.0139312744140625,0.0665435791015625,0.07334177716902973,1
-0.001251220703125,0.004180908203125,0.095306396484375,0.09540626162620446,1
0.0030059814453125,0.0361480712890625,0.104888916015625,0.11098379920196255,1
-0.00445556640625,0.0542449951171875,0.08465576171875,0.10064278195402777,1
-0.0023193359375,0.0425262451171875,0.0793304443359375,0.09003988139427645,1
0.0147247314453125,0.0201568603515625,0.107025146484375,0.10989767383967185,1
-0.003387451171875,0.0638427734375,0.1325836181640625,0.14719303771275227,1
0.0062103271484375,0.0084381103515625,0.1357879638671875,0.13619155994698198,1
-0.0097808837890625,-0.1396331787109375,0.1368560791015625,0.1957617855243175,1
0.0211181640625,-0.1396331787109375,0.153900146484375,0.2088747388704612,1
-0.00445556640625,0.154388427734375,0.13897705078125,0.20777453966775375,1
-0.02362060546875,0.0244293212890625,0.10382080078125,0.10924048432799346,1
0.029632568359375,-0.0458831787109375,0.10382080078125,0.11731203634347527,1
-0.02362060546875,0.105377197265625,0.12725830078125,0.16690404975314374,1
-0.0257568359375,0.0446624755859375,0.15069580078125,0.15927139007391736,1
0.0147247314453125,-0.0213775634765625,0.1592254638671875,0.16132751247091137,1
-0.0055084228515625,-0.107666015625,0.1677398681640625,0.1993965321026708,1
0.022186279296875,-0.0448150634765625,0.1794586181640625,0.18629550863292987,1
0.0019378662109375,0.1224212646484375,0.1709442138671875,0.21026803280157685,1
-0.00445556640625,0.109649658203125,0.137908935546875,0.17624350802152902,1
0.0125885009765625,-0.1236419677734375,0.126190185546875,0.17711513057917838,1
0.022186279296875,-0.049072265625,0.149627685546875,0.15902440858158853,1
-0.0193634033203125,0.12030029296875,0.1656036376953125,0.20560074585086624,1
-0.0182952880859375,0.1011199951171875,0.15283203125,0.1841673172814559,1
-0.001251220703125,0.084075927734375,0.13897705078125,0.16243444161106324,1
-0.022552490234375,0.1266937255859375,0.16455078125,0.20889440999845296,1
-0.024688720703125,-0.0245819091796875,0.2018280029296875,0.2048129535831688,1
-0.034271240234375,-0.054412841796875,0.2241973876953125,0.23323752680264867,1
-0.02362060546875,-0.1502838134765625,0.2050323486328125,0.2553065247533947,1
-0.026824951171875,-0.106597900390625,0.1815948486328125,0.21227194685835707,1
-0.0491943359375,0.187408447265625,0.1453704833984375,0.2422283762038204,1
-0.045989990234375,0.3983306884765625,0.08465576171875,0.4098158300702304,1
-0.0406646728515625,0.2630462646484375,0.0761260986328125,0.2768431611159523,1
0.02325439453125,0.130950927734375,0.11981201171875,0.17900790622651958,1
-0.0097808837890625,0.234283447265625,0.1560211181640625,0.2816504725071918,1
-0.0321502685546875,-0.0938262939453125,0.1794586181640625,0.20504245618165398,1
0.0498809814453125,-0.18756103515625,0.196502685546875,0.27618935469341627,1
0.00726318359375,-0.119384765625,0.2018280029296875,0.23460609298532434,1
0.00726318359375,-0.3260498046875,0.1901092529296875,0.377495373510931,1
0.0605316162109375,-0.362274169921875,0.161346435546875,0.4011724355154198,1
0.0125885009765625,-0.050140380859375,0.1347198486328125,0.14429818351319607,1
-0.015106201171875,0.255584716796875,0.1006317138671875,0.2750972311925939,1
-0.0140380859375,0.2726287841796875,0.1027679443359375,0.2916929416408933,1
-0.0545196533203125,0.154388427734375,0.153900146484375,0.2247074415865471,1
-0.0779571533203125,0.1234893798828125,0.1794586181640625,0.231370569284434,1
-0.02362060546875,-0.08636474609375,0.1453704833984375,0.17073189454241888,1
0.0381622314453125,-0.028839111328125,0.1325836181640625,0.14094845177069348,1
-0.080078125,0.1767578125,0.1208648681640625,0.2286135314009584,1
-0.0300140380859375,0.0947265625,0.1336517333984375,0.16654353774823424,1
0.0488128662109375,-0.028839111328125,0.11767578125,0.13062151332273228,1
-0.0300140380859375,0.0340118408203125,0.1315155029296875,0.13911856565196115,1
-0.001251220703125,-0.07464599609375,0.149627685546875,0.16721852340034155,1
0.031768798828125,0.0670318603515625,0.118743896484375,0.14000942765923022,1
0.0349578857421875,0.2236328125,0.0974273681640625,0.24642601459586155,1
0.017913818359375,0.0638427734375,0.11981201171875,0.13693692986370962,1
0.041351318359375,-0.132171630859375,0.142181396484375,0.1984812863731297,1
0.064788818359375,-0.0671844482421875,0.1709442138671875,0.19476464084808104,1
-0.0087127685546875,0.0766143798828125,0.17413330078125,0.19044180733675245,1
0.0136566162109375,0.19805908203125,0.175201416015625,0.2647818711983023,1
-0.024688720703125,0.1128387451171875,0.18585205078125,0.21882207409028653,1
0.0019378662109375,-0.0235137939453125,0.20928955078125,0.21061521763009322,1
-0.0374755859375,-0.1502838134765625,0.2156829833984375,0.26553491947777386,1
-0.038543701171875,0.0137786865234375,0.1911773681640625,0.19551024321113064,1
-0.0172271728515625,0.15545654296875,0.173065185546875,0.23327038107017936,1
-0.0736846923828125,0.2033843994140625,0.1347198486328125,0.2548412945976702,1
0.04241943359375,0.2023162841796875,0.1794586181640625,0.27374565352539465,1
-0.02362060546875,-0.02032470703125,0.2806549072265625,0.2823795383326612,1
0.0360260009765625,0.201263427734375,0.334991455078125,0.3924590616422466,1
0.02325439453125,-0.1023406982421875,0.356292724609375,0.37142817743311485,1
0.0914306640625,-0.14495849609375,0.342437744140625,0.38293098664484126,1
0.06585693359375,0.1469268798828125,0.3147430419921875,0.35353617384500546,1
-0.045989990234375,-0.1811676025390625,0.358428955078125,0.40423767173521347,1
0.109527587890625,-0.1129913330078125,0.368011474609375,0.40024464929363845,1
-0.0545196533203125,0.1117706298828125,0.4329986572265625,0.4505029450098788,1
-0.0726318359375,0.19805908203125,0.3190155029296875,0.38245741550687024,1
-0.14080810546875,-0.282379150390625,0.342437744140625,0.4656484894780074,1
-0.0491943359375,-0.245086669921875,0.4436492919921875,0.5092271131301779,1
-0.083282470703125,-0.2653350830078125,0.492645263671875,0.5657190398241082,1
-0.186614990234375,-0.003265380859375,0.5096893310546875,0.5427882013118077,1
-0.068359375,-0.0586700439453125,0.424468994140625,0.43392292540690847,1
-0.0140380859375,0.1916656494140625,0.3744049072265625,0.420846555857873,1
-0.0534515380859375,0.17889404296875,0.436187744140625,0.4744680112209302,1
-0.0960693359375,-0.014984130859375,0.4969024658203125,0.5063258851998286,1
-0.071563720703125,0.173553466796875,0.4308624267578125,0.46998361966106883,1
-0.0843505859375,0.1458587646484375,0.3498992919921875,0.38835462545127736,1
-0.0023193359375,-0.09808349609375,0.358428955078125,0.37161413773369845,1
-0.0310821533203125,0.1117706298828125,0.403167724609375,0.41952710058603954,1
-0.126953125,-0.026702880859375,0.389312744140625,0.410359053200681,1
0.0583953857421875,-0.0895538330078125,0.40423583984375,0.41813457677708493,1
-0.08221435546875,-0.097015380859375,0.425537109375,0.44413175502733676,1
-0.0641021728515625,-0.190765380859375,0.4532318115234375,0.49590280708575424,1
0.045623779296875,-0.06292724609375,0.4425811767578125,0.44935449876306277,1
-0.069427490234375,0.1767578125,0.3946380615234375,0.4379528516667129,1
-0.0310821533203125,0.1256256103515625,0.3861236572265625,0.40723380618662536,1
0.008331298828125,0.1490631103515625,0.3626861572265625,0.392212276773199,1
-0.0790252685546875,0.234283447265625,0.3488311767578125,0.42757094921316346,1
-0.0214996337890625,0.0894012451171875,0.3509674072265625,0.36281253811976094,1
0.0360260009765625,-0.0330963134765625,0.3520355224609375,0.3554184122783278,1
0.0381622314453125,0.0542449951171875,0.309417724609375,0.31644620981549504,1
-0.0076446533203125,0.23321533203125,0.2454986572265625,0.33869960513540487,1
-0.0097808837890625,0.314178466796875,0.24444580078125,0.39819282289629077,1
-0.050262451171875,-0.049072265625,0.331787109375,0.3391416919206394,1
-0.14825439453125,-0.2035369873046875,0.457489013671875,0.5222096019122601,1
-0.091796875,-0.4091339111328125,0.5331268310546875,0.6782635486954987,1
-0.0182952880859375,-0.3633270263671875,0.5096893310546875,0.6261984189104483,1
0.00726318359375,0.072357177734375,0.3935699462890625,0.4002319547806946,1
0.0711822509765625,0.2832794189453125,0.2614898681640625,0.3920345561357353,1
0.10101318359375,0.234283447265625,0.175201416015625,0.30949625699883615,1
-0.0087127685546875,0.0776824951171875,0.2508392333984375,0.2627371374500286,1
-0.0534515380859375,-0.1460113525390625,0.4415130615234375,0.4680920480950702,1
-0.0896759033203125,-0.00433349609375,0.480926513671875,0.489234972561542,1
-0.1312103271484375,0.0766143798828125,0.3754730224609375,0.40505049531037435,1
-0.026824951171875,-0.0778350830078125,0.3296661376953125,0.3397905832938154,1
-0.061981201171875,-0.0671844482421875,0.3488311767578125,0.36060866498540467,1
-0.104583740234375,0.1799468994140625,0.313690185546875,0.37645740507868725,1
0.0157928466796875,0.20977783203125,0.2476348876953125,0.3249295160828722,1
0.02325439453125,0.2076568603515625,0.198638916015625,0.28830462617159974,1
0.0370941162109375,0.2939300537109375,0.18585205078125,0.34973108914075896,1
0.075439453125,0.3195037841796875,0.2156829833984375,0.3928013855889387,1
0.098876953125,0.2641143798828125,0.222076416015625,0.3589582037932982,1
0.08929443359375,0.3546600341796875,0.186920166015625,0.4107266538447128,1
0.1617279052734375,0.4207000732421875,0.222076416015625,0.502456367777801,1
0.053070068359375,-0.119384765625,0.3030242919921875,0.32998920581796526,1
-0.03533935546875,-0.3079376220703125,0.4542999267578125,0.5499662467673985,1
-0.095001220703125,-0.4102020263671875,0.58319091796875,0.7193070145439039,1
-0.11737060546875,-0.4538726806640625,0.461761474609375,0.6580273008885783,1
-0.001251220703125,-0.2749176025390625,0.3285980224609375,0.4284365928632995,1
-0.0609130859375,-0.3633270263671875,0.31048583984375,0.4817866632346012,1
-0.0257568359375,-0.2845001220703125,0.356292724609375,0.4566708219988507,1
0.04241943359375,0.1373443603515625,0.3850555419921875,0.4110117420289738,1
0.1031494140625,0.56451416015625,0.1560211181640625,0.5946920446344627,1
0.0924835205078125,0.5101776123046875,0.0409698486328125,0.5201085715112053,1
0.045623779296875,0.31524658203125,0.1027679443359375,0.33469865118155157,1
-0.0214996337890625,0.1064453125,0.19757080078125,0.22544857535063473,1
-0.0065765380859375,0.29180908203125,0.2508392333984375,0.38485856131965207,1
-0.0747528076171875,0.347198486328125,0.2359161376953125,0.426369786898963,1
-0.1099090576171875,-0.0213775634765625,0.2252655029296875,0.25155823973119573,1
-0.102447509765625,-0.383575439453125,0.2582855224609375,0.4736422923702604,1
-0.083282470703125,-0.30047607421875,0.3371124267578125,0.4592021661304203,1
-0.0726318359375,-0.3196563720703125,0.3594818115234375,0.48650051655982673,1
-0.0641021728515625,-0.1854400634765625,0.331787109375,0.385460492987156,1
-0.0747528076171875,-0.245086669921875,0.2700042724609375,0.37223348206093243,1
0.0509490966796875,-0.166259765625,0.23272705078125,0.2905167814145933,1
0.008331298828125,-0.1726531982421875,0.2423095703125,0.2976448643407912,1
-0.00445556640625,0.064910888671875,0.1901092529296875,0.20093482423327458,1
0.0743865966796875,0.2278900146484375,0.1102142333984375,0.26384541266744965,1
0.041351318359375,0.2758331298828125,0.0857086181640625,0.2917872757654109,1
-0.0257568359375,0.1650390625,0.11553955078125,0.20310266995567353,1
0.0030059814453125,0.133087158203125,0.153900146484375,0.20348582921408867,1
0.0157928466796875,0.0137786865234375,0.1773223876953125,0.1785567007606435,1
-0.0332183837890625,0.0766143798828125,0.1794586181640625,0.1979358983604039,1
0.020050048828125,0.0446624755859375,0.16241455078125,0.16963262507238958,1
0.02325439453125,-0.1140594482421875,0.1592254638671875,0.19723861929664868,1
0.010467529296875,-0.003265380859375,0.1581573486328125,0.15853699507780103,1
0.0328369140625,-0.052276611328125,0.1443023681640625,0.15695311553090144,1
-0.0087127685546875,-0.338836669921875,0.13897705078125,0.3663343034217344,0
0.0168609619140625,-0.2536163330078125,0.151763916015625,0.296036860220809,0
0.0136566162109375,0.1597137451171875,0.1475067138671875,0.21783758670529543,0
-0.026824951171875,0.1245574951171875,0.116607666015625,0.17271796481215615,0
0.0168609619140625,0.051055908203125,0.1091461181640625,0.12167116712433101,0
-0.0182952880859375,0.0105743408203125,0.1006317138671875,0.10282643670661291,0
-0.0172271728515625,0.0404052734375,0.095306396484375,0.10494127318102084,0
0.02325439453125,0.0702362060546875,0.09210205078125,0.11813839030596068,0
-0.0108489990234375,0.0915374755859375,0.0793304443359375,0.12161467680750515,0
0.010467529296875,0.1107177734375,0.09423828125,0.14576984659898842,0
0.010467529296875,0.142669677734375,0.104888916015625,0.1773862757299566,0
-0.026824951171875,0.2257537841796875,0.0974273681640625,0.2473387174386537,0
0.0370941162109375,-0.0213775634765625,0.0676116943359375,0.08002696351006477,0
0.01153564453125,-0.1034088134765625,0.02606201171875,0.10726454332261949,0
-0.0182952880859375,0.222564697265625,0.038848876953125,0.22666935671944233,0
0.00726318359375,-0.1140594482421875,0.0782623291015625,0.13851824329535098,0
-0.050262451171875,-0.095947265625,0.095306396484375,0.1442757810221671,0
8.697509765625E-4,0.2044525146484375,0.095306396484375,0.2255768082575593,0
-0.0204315185546875,-0.1502838134765625,0.0761260986328125,0.1696993059401289,0
-0.03533935546875,0.0542449951171875,0.0633392333984375,0.09057178383863325,0
-0.0023193359375,0.1021881103515625,0.07293701171875,0.125569092116154,0
-0.0193634033203125,-0.094879150390625,0.0516204833984375,0.10973453819686985,0
0.0019378662109375,0.1490631103515625,0.0431060791015625,0.155182796239286,0
0.0349578857421875,0.01910400390625,0.03564453125,0.05345605062896134,0
-0.00445556640625,-0.072509765625,0.0207366943359375,0.07554818776764297,0
-0.003387451171875,0.12030029296875,0.0558929443359375,0.13269384514870736,0
-0.0087127685546875,-0.0895538330078125,0.0910491943359375,0.12800686361090968,0
-0.012969970703125,-0.06292724609375,0.0654754638671875,0.09173382587468307,0
0.0392303466796875,0.0318756103515625,0.0441741943359375,0.06712997900433366,0
0.01898193359375,-0.1396331787109375,0.048431396484375,0.14900784732793396,0
-0.0204315185546875,-0.0128631591796875,0.0633392333984375,0.0677847055170579,0
-0.0076446533203125,0.06170654296875,0.0793304443359375,0.1007941345916479,0
-0.0097808837890625,-0.0341644287109375,0.0793304443359375,0.08692636697445232,0
-0.0076446533203125,0.0361480712890625,0.0537567138671875,0.06522965635434222,0
0.0040740966796875,0.10858154296875,0.01434326171875,0.10960054239812184,0
0.0157928466796875,-0.0064697265625,0.02606201171875,0.031152846143970486,0
0.00726318359375,-0.0671844482421875,0.058013916015625,0.08906244086589858,0
-0.0214996337890625,0.0585174560546875,0.074005126953125,0.09676407252448725,0
-0.0172271728515625,0.0084381103515625,0.069732666015625,0.07232303851753921,0
0.0275115966796875,-0.03948974609375,0.071868896484375,0.08649546970967002,0
-0.0310821533203125,-0.0064697265625,0.0633392333984375,0.07085066057788503,0
-0.0172271728515625,0.1117706298828125,0.0537567138671875,0.12521674598334256,0
0.0211181640625,-0.0767822265625,0.050567626953125,0.09433224297628123,0
-0.036407470703125,-0.1055450439453125,0.0569610595703125,0.12533883090163855,0
-0.022552490234375,0.0947265625,0.069732666015625,0.11976803066129411,0
0.020050048828125,-0.0778350830078125,0.07080078125,0.10711234863662364,0
-0.024688720703125,0.004180908203125,0.04736328125,0.05357511861047507,0
0.0243072509765625,0.1831512451171875,0.038848876953125,0.18879739478746188,0
0.0019378662109375,-0.163055419921875,0.050567626953125,0.17072759058518017,0
8.697509765625E-4,-0.0064697265625,0.058013916015625,0.058380033230743714,0
8.697509765625E-4,0.107513427734375,0.048431396484375,0.11792155772115054,0
-0.0055084228515625,-0.0554656982421875,0.02392578125,0.06065665183825983,0
0.0488128662109375,0.0808868408203125,0.0292510986328125,0.09889895700584501,0
-0.0214996337890625,-0.060791015625,0.04949951171875,0.08128950420673914,0
-0.0172271728515625,0.006317138671875,0.0654754638671875,0.06799792713076397,0
0.01153564453125,0.02655029296875,0.0644073486328125,0.07061370765925315,0
-0.001251220703125,-0.0938262939453125,0.0409698486328125,0.10238880547088965,0
0.0051422119140625,0.0638427734375,0.03778076171875,0.07436214103702264,0
-0.0108489990234375,-0.0437469482421875,0.058013916015625,0.07346503053686952,0
-0.0193634033203125,-0.072509765625,0.0665435791015625,0.10030281859839944,0
-0.012969970703125,0.048919677734375,0.0558929443359375,0.07540143391352205,0
0.020050048828125,0.0084381103515625,0.0324554443359375,0.039071243022950786,0
-0.0076446533203125,-0.0352325439453125,0.01434326171875,0.03880079939870699,0
0.0093994140625,0.0883331298828125,0.0292510986328125,0.09352388780861642,0
0.022186279296875,-0.0597381591796875,0.048431396484375,0.08004048236138608,0
0.0030059814453125,-0.0458831787109375,0.0303192138671875,0.05507773363704834,0
-0.0087127685546875,0.14373779296875,0.01434326171875,0.14471418251210677,0
0.010467529296875,-0.0597381591796875,0.027130126953125,0.06643990231970015,0
0.01898193359375,-0.0767822265625,0.0420379638671875,0.0895712818092472,0
-0.0182952880859375,0.08514404296875,0.0420379638671875,0.09670271984443227,0
0.0125885009765625,-0.0341644287109375,0.038848876953125,0.0532439084450108,0
-0.003387451171875,-0.0299072265625,0.0313873291015625,0.04348656636517,0
-0.015106201171875,0.0883331298828125,0.005828857421875,0.08980487028877403,0
0.0211181640625,0.0020599365234375,-0.0027008056640625,0.021389589596022884,0
-1.8310546875E-4,-0.08636474609375,0.015411376953125,0.08772920514311015,0
-0.0193634033203125,0.0329437255859375,0.0409698486328125,0.05602462798289883,0
0.0136566162109375,-0.0235137939453125,0.03778076171875,0.04654876612848531,0
-0.0097808837890625,-0.0224456787109375,0.0175323486328125,0.03011407360474934,0
0.0040740966796875,0.064910888671875,0.0164794921875,0.06709392964110736,0
0.0030059814453125,-0.0906219482421875,0.0196685791015625,0.09278052829949662,0
-0.0023193359375,-0.017120361328125,0.0111541748046875,0.020564574072177193,0
-0.0193634033203125,-0.003265380859375,0.003692626953125,0.019980980809680166,0
0.00726318359375,0.0084381103515625,0.0186004638671875,0.021677933441548648,0
8.697509765625E-4,0.0574493408203125,0.0313873291015625,0.06547020433433401,0
0.029632568359375,-0.02032470703125,0.0228729248046875,0.042595228753935156,0
0.0253753662109375,0.0340118408203125,-0.0069580078125,0.04300149298622404,0
0.017913818359375,0.095794677734375,-0.0144195556640625,0.09851623600196284,0
0.01898193359375,-0.0565338134765625,0.0228729248046875,0.06387140642166245,0
-0.0172271728515625,-0.0597381591796875,0.0313873291015625,0.06964615979912378,0
-0.012969970703125,0.1000518798828125,0.0324554443359375,0.10598091656127437,0
-0.0076446533203125,-0.0416259765625,0.02606201171875,0.049703029122960166,0
0.00726318359375,-0.017120361328125,0.0100860595703125,0.021156304156869404,0
0.00726318359375,0.053192138671875,0.00262451171875,0.053749841992012916,0
-0.0076446533203125,-0.0682525634765625,0.0068817138671875,0.0690232651448756,0
-0.001251220703125,0.01483154296875,0.0186004638671875,0.02382262529941555,0
-0.015106201171875,9.918212890625E-4,0.034576416015625,0.03774532511186206,0
-0.0065765380859375,-0.061859130859375,0.036712646484375,0.07223310415425713,0
-0.00445556640625,0.0052490234375,0.0186004638671875,0.01983384922606995,0
-0.0087127685546875,9.918212890625E-4,0.001556396484375,0.008906088668633598,0
-0.0023193359375,0.0105743408203125,-0.005889892578125,0.012324237808357895,0
-0.001251220703125,0.0212249755859375,0.0047607421875,0.021788295207459757,0
-0.00445556640625,-0.03948974609375,0.015411376953125,0.042623968118192135,0
-0.0097808837890625,0.00311279296875,0.0164794921875,0.01941465504507661,0
0.0062103271484375,-0.0330963134765625,0.02606201171875,0.042581246856542077,0
0.0040740966796875,-0.1129913330078125,0.0218048095703125,0.11514811904254195,0
-0.01617431640625,0.1000518798828125,-5.645751953125E-4,0.10135238489766973,0
0.0211181640625,0.015899658203125,0.0100860595703125,0.02829318967530453,0
-0.0023193359375,-0.1715850830078125,-5.645751953125E-4,0.17160168639946416,0
0.01153564453125,0.17462158203125,0.001556396484375,0.17500911512222586,0
-1.8310546875E-4,-0.0586700439453125,-0.0037689208984375,0.058791260820773905,0
8.697509765625E-4,0.006317138671875,0.0047607421875,0.007957849831252934,0
8.697509765625E-4,0.051055908203125,0.0111541748046875,0.05226736883353402,0
0.0030059814453125,-0.0821075439453125,0.003692626953125,0.08224548735946509,0
-0.0087127685546875,0.0819549560546875,4.8828125E-4,0.0824182357029827,0
-0.02362060546875,-0.0011444091796875,0.001556396484375,0.023699473519415367,0
0.033905029296875,-0.049072265625,0.0068817138671875,0.06004162098863046,0
-0.0065765380859375,-0.030975341796875,-0.005889892578125,0.03220890384988086,0
-0.0300140380859375,0.0989990234375,-0.019744873046875,0.10531623395963223,0
0.033905029296875,0.0212249755859375,0.005828857421875,0.04042308967768474,0
0.0019378662109375,-0.2056732177734375,0.0292510986328125,0.20775190638345023,0
-0.0321502685546875,0.0712890625,0.0324554443359375,0.08467069190286904,0
-0.01190185546875,0.0542449951171875,0.0175323486328125,0.058237075024808654,0
0.008331298828125,-0.1374969482421875,-5.645751953125E-4,0.13775028152867588,0
-0.001251220703125,0.0425262451171875,-0.017608642578125,0.046044667122905766,0
0.00726318359375,0.07342529296875,-0.00909423828125,0.07434199791086758,0
-0.0076446533203125,-0.0799713134765625,0.001556396484375,0.08035094320274633,0
8.697509765625E-4,0.0766143798828125,0.0047607421875,0.07676707847616046,0
0.0147247314453125,-0.0107269287109375,0.0111541748046875,0.021361187496944906,0
-0.0087127685546875,-0.095947265625,0.01220703125,0.09711231502101232,0
-0.01190185546875,0.09686279296875,0.0111541748046875,0.09822662796248004,0
0.00726318359375,-0.0533447265625,0.01434326171875,0.05571483505025364,0
-0.0065765380859375,-0.072509765625,0.0111541748046875,0.0736568569772139,0
-0.0182952880859375,0.1416015625,4.8828125E-4,0.14277940498253924,0
0.0211181640625,0.018035888671875,-0.005889892578125,0.028389451705462497,0
0.0136566162109375,-0.0341644287109375,-0.019744873046875,0.04175609377222422,0
-0.0310821533203125,0.1618499755859375,-0.021881103515625,0.1662537143743185,0
-0.0108489990234375,0.053192138671875,0.0111541748046875,0.055421295653133675,0
-0.0055084228515625,-0.15667724609375,0.0335235595703125,0.16031821859070605,0
-0.0300140380859375,0.029754638671875,0.048431396484375,0.0642789325529343,0
-0.022552490234375,0.037200927734375,0.0569610595703125,0.07167346892290383,0
0.0051422119140625,-0.0789031982421875,0.046295166015625,0.09162641230905719,0
-0.003387451171875,0.0585174560546875,0.0420379638671875,0.07213153190285843,0
-0.00445556640625,0.0212249755859375,0.0431060791015625,0.048254385460124866,0
0.017913818359375,-0.01605224609375,0.0409698486328125,0.047509030613795536,0
-0.0097808837890625,-7.62939453125E-5,0.0313873291015625,0.03287606936041821,0
-0.0193634033203125,0.0425262451171875,0.0452423095703125,0.06504067563585263,0
-0.0055084228515625,-0.0778350830078125,0.0857086181640625,0.11590776547211037,0
-0.01617431640625,-0.0437469482421875,0.071868896484375,0.08567696466143003,0
-0.0204315185546875,0.09686279296875,0.03564453125,0.10521587437354542,0
-0.0108489990234375,-0.0213775634765625,0.0399169921875,0.046562509224717934,0
0.017913818359375,-0.0778350830078125,0.05908203125,0.09934732735042105,0
-0.0374755859375,0.0222930908203125,0.062286376953125,0.07603284943778202,0
0.0051422119140625,0.0404052734375,0.058013916015625,0.07088471567549848,0
-0.0065765380859375,-0.095947265625,0.0665435791015625,0.1169494615368365,0
0.0040740966796875,0.015899658203125,0.0750579833984375,0.07683162282922157,0
-0.034271240234375,0.048919677734375,0.04949951171875,0.0775748312098197,0
0.0264434814453125,0.029754638671875,0.03564453125,0.05343340566981158,0
-0.00445556640625,-0.1012725830078125,0.0420379638671875,0.10974141673576908,0
-0.024688720703125,0.09686279296875,0.0548248291015625,0.1140074360630892,0
0.020050048828125,0.0286865234375,0.0526885986328125,0.06325353358374569,0
-0.0140380859375,-0.118316650390625,0.03564453125,0.12436410344017379,0
-0.0065765380859375,0.1245574951171875,0.04736328125,0.1334207662016321,0
-1.8310546875E-4,-0.0671844482421875,0.0654754638671875,0.09381268561257178,0
-0.0172271728515625,-0.084228515625,0.058013916015625,0.10371515212502208,0
0.008331298828125,0.1266937255859375,0.0399169921875,0.13309424070298942,0
0.008331298828125,-0.049072265625,0.03778076171875,0.06248906904237764,0
-0.0172271728515625,-0.0139312744140625,0.03564453125,0.04196889919082643,0
0.0147247314453125,0.08514404296875,0.038848876953125,0.09473943745726997,0
8.697509765625E-4,-0.1385650634765625,0.0452423095703125,0.1457665937664766,0
-0.0172271728515625,0.0691680908203125,0.038848876953125,0.08118026553728226,0
-0.0055084228515625,0.0819549560546875,0.03564453125,0.08954043864237879,0
0.01153564453125,-0.1140594482421875,0.03778076171875,0.12070631625607904,0
-0.02362060546875,0.064910888671875,0.034576416015625,0.07724561486174125,0
-0.0097808837890625,0.0350799560546875,0.0335235595703125,0.04949846513537811,0
0.017913818359375,-0.119384765625,0.03564453125,0.1258735864253541,0
-0.0182952880859375,0.03082275390625,0.0335235595703125,0.04907737534523405,0
-0.0023193359375,0.072357177734375,0.038848876953125,0.08215945307384878,0
-0.0065765380859375,-0.0810394287109375,0.034576416015625,0.08835252346977124,0
0.020050048828125,0.025482177734375,0.024993896484375,0.040939476078329665,0
-0.01190185546875,-0.0096588134765625,0.0228729248046875,0.027533934163045577,0
8.697509765625E-4,-0.01605224609375,0.024993896484375,0.029717434830200208,0
-0.0055084228515625,0.006317138671875,0.0441741943359375,0.044962299858219965,0
0.00726318359375,-0.095947265625,0.024993896484375,0.09941492080317964,0
0.0019378662109375,0.1714324951171875,0.0100860595703125,0.1717398739524747,0
-0.0055084228515625,-0.084228515625,0.0292510986328125,0.0893331536325065,0
0.029632568359375,-0.0767822265625,0.046295166015625,0.09442903059908216,0
-0.0182952880859375,0.0808868408203125,0.0313873291015625,0.08867109456958232,0
0.010467529296875,-0.0245819091796875,0.0196685791015625,0.03317668507210692,0
0.0019378662109375,-0.042694091796875,0.0313873291015625,0.05302551487672019,0
-0.0055084228515625,0.0084381103515625,0.0452423095703125,0.04635095472450111,0
-0.0097808837890625,0.0233612060546875,0.034576416015625,0.042859540134143795,0
0.01898193359375,-7.62939453125E-5,0.0228729248046875,0.029723564941717788,0
-0.0182952880859375,0.006317138671875,0.0324554443359375,0.037788618315443646,0
-1.8310546875E-4,0.039337158203125,0.0441741943359375,0.05915069727686685,0
-0.0076446533203125,-0.0352325439453125,0.03564453125,0.050698180295532976,0
-0.0055084228515625,0.027618408203125,0.0281982421875,0.03985298052154899,0
0.008331298828125,0.0201568603515625,0.048431396484375,0.05311600253052408,0
-0.012969970703125,-0.063995361328125,0.0516204833984375,0.08323641461431144,0
0.0019378662109375,0.09686279296875,0.036712646484375,0.10360489563261531,0
-0.003387451171875,-0.030975341796875,0.0313873291015625,0.044227944254790555,0
-0.0065765380859375,-0.02777099609375,0.04949951171875,0.05713738476365131,0
-0.012969970703125,0.0084381103515625,0.058013916015625,0.06004195448028868,0
-0.0055084228515625,-0.0235137939453125,0.0569610595703125,0.06186924547290778,0
-0.01617431640625,-0.019256591796875,0.03778076171875,0.04538513848045334,0
-0.0023193359375,0.0798187255859375,0.03778076171875,0.08833908664573761,0
-0.0023193359375,-0.10980224609375,0.0516204833984375,0.1213531494140625,0
-0.0055084228515625,-0.0320281982421875,0.0548248291015625,0.0637331161247276,0
8.697509765625E-4,0.08514404296875,0.06121826171875,0.10487106411060655,0
-0.0065765380859375,-0.1385650634765625,0.048431396484375,0.14693239205459874,0
-0.0204315185546875,0.072357177734375,0.034576416015625,0.08275588598172363,0
0.0147247314453125,0.0095062255859375,0.034576416015625,0.03876486276917379,0
-0.0097808837890625,-0.118316650390625,0.034576416015625,0.12365283657012523,0
-0.01617431640625,0.1128387451171875,0.0431060791015625,0.12187011514863379,0
0.0136566162109375,-0.0256500244140625,0.0292510986328125,0.041231707337937976,0
-0.0076446533203125,-0.01605224609375,0.013275146484375,0.022188845017794213,0
-0.00445556640625,0.07342529296875,0.027130126953125,0.0784038870722616,0
0.0040740966796875,-0.094879150390625,0.04736328125,0.10612224956798116,0
-0.0076446533203125,-0.0022125244140625,0.03564453125,0.03652216582710853,0
0.0062103271484375,0.10858154296875,0.0164794921875,0.11000042408792339,0
0.0040740966796875,-0.0778350830078125,0.013275146484375,0.07906407480499672,0
0.0062103271484375,0.053192138671875,0.0196685791015625,0.0570510717134483,0
0.0062103271484375,0.01483154296875,0.02606201171875,0.030623051529081156,0
-0.022552490234375,-0.1161956787109375,0.0292510986328125,0.12192488399868798,0
-1.8310546875E-4,0.0766143798828125,0.036712646484375,0.0849565485664718,0
0.0062103271484375,-0.061859130859375,0.0303192138671875,0.06916917639738206,0
-0.034271240234375,0.0020599365234375,0.003692626953125,0.034531098150765216,0
0.0370941162109375,0.105377197265625,0.005828857421875,0.11186734438554233,0
-0.012969970703125,-0.15667724609375,0.0068817138671875,0.15736371109411235,0
-0.022552490234375,0.0936737060546875,0.0228729248046875,0.09902801982728154,0
0.0125885009765625,-0.019256591796875,0.0516204833984375,0.05651513948276824,0
-0.024688720703125,-0.1833038330078125,0.0452423095703125,0.1904119079799604,0
0.0051422119140625,0.2033843994140625,0.0196685791015625,0.2043979189528662,0
0.0093994140625,-0.0586700439453125,0.0100860595703125,0.060268164389826205,0
-0.0065765380859375,-0.072509765625,0.024993896484375,0.07697799572384222,0
-0.0065765380859375,0.14373779296875,0.04736328125,0.15148295082777344,0
-0.0087127685546875,-0.10980224609375,0.0452423095703125,0.11907691698383856,0
0.0168609619140625,0.0595703125,0.03564453125,0.07143841246869466,0
-0.0065765380859375,0.039337158203125,0.036712646484375,0.05420776033539998,0
0.0093994140625,-0.0799713134765625,0.04949951171875,0.09451963618359742,0
0.0019378662109375,9.918212890625E-4,0.04949951171875,0.04954735810631682,0
-0.0055084228515625,0.0105743408203125,0.0452423095703125,0.04678702791748727,0
0.0136566162109375,-0.0363006591796875,0.03778076171875,0.05414450091432773,0
-0.024688720703125,0.0318756103515625,0.034576416015625,0.053114178989485665,0
-0.0065765380859375,0.027618408203125,0.048431396484375,0.056139357765269814,0
0.010467529296875,-0.1236419677734375,0.050567626953125,0.13399250076082284,0
-0.02362060546875,0.015899658203125,0.03564453125,0.045620880545193,0
-0.00445556640625,0.0947265625,0.03564453125,0.1013089646729209,0
-1.8310546875E-4,-0.0938262939453125,0.034576416015625,0.09999467739640165,0
0.022186279296875,0.053192138671875,0.034576416015625,0.06720984414512872,0
-0.024688720703125,0.0318756103515625,0.0164794921875,0.043556413167287145,0
0.031768798828125,0.0286865234375,0.0047607421875,0.04306782873663305,0
-1.8310546875E-4,-0.061859130859375,0.0303192138671875,0.06889005971701738,0
-0.022552490234375,-0.0128631591796875,0.0399169921875,0.047617664213508985,0
0.0147247314453125,0.048919677734375,0.0335235595703125,0.061104677660846644,0
-0.0108489990234375,-0.1502838134765625,0.015411376953125,0.15146100459345993,0
-0.001251220703125,0.12030029296875,0.00262451171875,0.1203354233107478,0
-0.0108489990234375,-0.0416259765625,0.015411376953125,0.04569390817366861,0
-0.003387451171875,-0.1257781982421875,0.0324554443359375,0.12994224042064226,0
-0.0140380859375,0.062774658203125,0.036712646484375,0.07406445828597207,0
-0.0428009033203125,-0.0458831787109375,0.02606201171875,0.06794418200613521,0
0.0211181640625,0.00311279296875,0.0047607421875,0.021870779584020505,0
-0.0087127685546875,-0.0011444091796875,-0.005889892578125,0.010578886654083986,0
0.0062103271484375,-0.0011444091796875,-0.008026123046875,0.010212565144210876,0
-0.0055084228515625,0.0169677734375,-0.01123046875,0.021080120637289368,0
0.0019378662109375,0.0169677734375,0.0068817138671875,0.018412459005457814,0
-1.8310546875E-4,-0.073577880859375,0.02392578125,0.07737041480948594,0
-0.024688720703125,-0.0341644287109375,0.0196685791015625,0.04651445068982396,0
0.0147247314453125,0.0361480712890625,0.001556396484375,0.03906306624002133,0
-0.0065765380859375,-0.0927581787109375,-0.0186767578125,0.0948480461230108,0
-0.015106201171875,0.0585174560546875,-0.0122833251953125,0.06167146872591279,0
0.0168609619140625,0.0222930908203125,-0.0027008056640625,0.02808145805020102,0
-0.0023193359375,-0.049072265625,-0.0154876708984375,0.051510528269663895,0
0.0136566162109375,0.10858154296875,-0.0389251708984375,0.11615344837446674,0
0.033905029296875,-0.0064697265625,-0.0346527099609375,0.04891031262476583,0
-0.0204315185546875,-0.0927581787109375,-0.0048370361328125,0.0951048031740295,0
-0.0204315185546875,0.051055908203125,0.024993896484375,0.060405691572633445,0
0.0168609619140625,-0.087432861328125,0.03778076171875,0.0967273654801968,0
-0.0087127685546875,-0.1055450439453125,0.0079498291015625,0.10620201702439341,0
-0.003387451171875,0.1725006103515625,4.8828125E-4,0.1725345583229126,0
8.697509765625E-4,-0.131103515625,0.0111541748046875,0.1315800284677328,0
-0.0055084228515625,-0.0352325439453125,0.015411376953125,0.038848235671151206,0
-0.0055084228515625,0.152252197265625,0.015411376953125,0.1531293075610078,0
-0.0076446533203125,-0.0554656982421875,0.0079498291015625,0.05655160641949278,0
0.0051422119140625,0.060638427734375,0.003692626953125,0.06096799779622988,0
-0.0087127685546875,0.0329437255859375,0.0186004638671875,0.03882239878528441,0
-0.0300140380859375,-0.061859130859375,0.0399169921875,0.07950321262815939,0
0.02325439453125,0.0404052734375,0.02606201171875,0.053409563201756625,0
-0.0214996337890625,-0.0213775634765625,0.0079498291015625,0.03134380729908712,0
0.0051422119140625,0.02655029296875,0.024993896484375,0.03682465562048388,0
-0.0193634033203125,-0.0810394287109375,0.0292510986328125,0.08830604263110614,0
-0.0395965576171875,-0.0064697265625,0.02606201171875,0.047843214688741705,0
8.697509765625E-4,-0.0235137939453125,0.027130126953125,0.03591237615302733,0
-0.0513153076171875,-0.0938262939453125,0.02392578125,0.10958593541044225,0
-0.0140380859375,0.0712890625,0.0324554443359375,0.07957734700252754,0
-0.0193634033203125,-0.07464599609375,0.0292510986328125,0.08247783273219389,0
-0.01617431640625,-0.02777099609375,0.03564453125,0.04799343020956923,0
-0.0310821533203125,0.027618408203125,0.034576416015625,0.05407777058262873,0
0.01153564453125,-0.0693206787109375,-0.0027008056640625,0.07032582699784919,0
0.0062103271484375,0.0212249755859375,-0.0069580078125,0.023183649941997352,0
-0.0076446533203125,0.0020599365234375,0.0175323486328125,0.0192371336599515,0
0.0093994140625,-0.0181884765625,0.03778076171875,0.04297156758173828,0
-0.036407470703125,-0.02032470703125,0.0324554443359375,0.05283893929620641,0
0.0285797119140625,0.0595703125,0.0164794921875,0.06809548977132286,0
0.008331298828125,-0.03948974609375,-0.021881103515625,0.04590896729152004,0
0.0040740966796875,0.0222930908203125,-0.04425048828125,0.049716052490188574,0
0.0392303466796875,0.0659637451171875,-0.0240020751953125,0.08041352737055614,0
-0.0406646728515625,-0.099151611328125,-0.0016326904296875,0.10717893134906395,0
0.0147247314453125,0.0095062255859375,0.024993896484375,0.03052672439845062,0
-0.0193634033203125,-0.1119232177734375,0.0303192138671875,0.11756276108713022,0
-0.059844970703125,-0.0821075439453125,0.0186004638671875,0.10329107680368067,0
0.0125885009765625,0.09686279296875,0.01220703125,0.09843720145596539,0
-0.0097808837890625,-0.0789031982421875,-0.0240020751953125,0.08305106859169557,0
0.022186279296875,0.0830078125,-0.0495758056640625,0.09919822796963156,0
0.010467529296875,0.0318756103515625,-0.0506439208984375,0.06074891298478327,0
8.697509765625E-4,-0.0256500244140625,-0.0357208251953125,0.04398474248915533,0
-0.01190185546875,0.051055908203125,-0.019744873046875,0.05601981736566223,0
8.697509765625E-4,-0.042694091796875,-5.645751953125E-4,0.04270668198622298,0
-0.0289459228515625,-0.0682525634765625,0.0100860595703125,0.07481983338999555,0
-0.0182952880859375,0.0361480712890625,-0.005889892578125,0.04094009597751871,0
0.0125885009765625,-0.003265380859375,-0.054901123046875,0.05642044293340665,0
0.0093994140625,-0.02777099609375,-0.087921142578125,0.09268065882912349,0
-0.0023193359375,0.0350799560546875,-0.0580902099609375,0.06790033232095104,0
-0.0300140380859375,-0.087432861328125,-0.0037689208984375,0.09251784955880633,0
-0.0300140380859375,-0.0533447265625,0.0175323486328125,0.06367013101003077,0
-0.015106201171875,-0.01605224609375,0.0100860595703125,0.024240472688364847,0
-0.024688720703125,-0.1140594482421875,-0.0133514404296875,0.11746212847048472,0
0.0253753662109375,0.0670318603515625,-0.0485076904296875,0.08654580026409693,0
-0.003387451171875,0.00738525390625,-0.0772705078125,0.07769651329566367,0
0.0275115966796875,0.015899658203125,-0.0612945556640625,0.06904136178333137,0
8.697509765625E-4,-0.0299072265625,-0.0357208251953125,0.0465958798613784,0
0.033905029296875,0.0222930908203125,-0.03253173828125,0.052008142685010396,0
0.01898193359375,0.006317138671875,-0.04425048828125,0.04856259627621115,0
-0.012969970703125,-0.0117950439453125,-0.0591583251953125,0.06170130178226485,0
0.0349578857421875,0.0340118408203125,-0.054901123046875,0.0734369961487956,0
-0.0193634033203125,-0.0895538330078125,-0.05596923828125,0.10736566503458914,0
0.01898193359375,0.0638427734375,-0.0495758056640625,0.0830299586317516,0
-0.01190185546875,-0.061859130859375,-0.045318603515625,0.07760143077857981,0
0.008331298828125,0.0052490234375,-0.0474395751953125,0.04845075935341623,0
-0.00445556640625,0.0201568603515625,-0.0357208251953125,0.04125685935534803,0
-0.0076446533203125,-0.1172637939453125,-0.00909423828125,0.1178640881047006,0
0.0062103271484375,0.03826904296875,-0.0133514404296875,0.041004253127964026,0
-0.0097808837890625,0.048919677734375,-0.0474395751953125,0.06884267464329055,0
0.020050048828125,0.03082275390625,-0.0687408447265625,0.07795736238545287,0
0.0168609619140625,0.0712890625,-0.0836639404296875,0.11120286595685684,0
0.0211181640625,0.0808868408203125,-0.0580902099609375,0.10179946151413101,0
-0.0172271728515625,-0.0682525634765625,-0.0282745361328125,0.07585932572271865,0
0.03070068359375,0.1224212646484375,-0.00909423828125,0.12653933452157268,0
-0.0097808837890625,9.918212890625E-4,-0.031463623046875,0.03296375240169764,0
0.0019378662109375,-0.0022125244140625,-0.0389251708984375,0.03903613094566214,0
0.008331298828125,0.0201568603515625,-0.0186767578125,0.028714645074990726,0
-0.0321502685546875,-0.0597381591796875,-0.0240020751953125,0.07196101058210373,0
-0.0065765380859375,0.121368408203125,-0.041046142578125,0.12829001201769347,0
-0.0204315185546875,-0.0011444091796875,-0.0240020751953125,0.03154134170422254,0
-0.04705810546875,-0.1161956787109375,0.0218048095703125,0.12724523866063125,0
-0.0108489990234375,0.084075927734375,0.0399169921875,0.09370073996241081,0
-0.0300140380859375,-0.028839111328125,-0.0027008056640625,0.04171128355319609,0
0.022186279296875,-0.00860595703125,-0.043182373046875,0.04930528194242623,0
0.0040740966796875,0.0457305908203125,-0.041046142578125,0.06158466547018061,0
-0.0055084228515625,-0.00860595703125,-0.019744873046875,0.02223207660954208,0
0.033905029296875,0.004180908203125,-0.0165557861328125,0.03796215298821099,0
0.01153564453125,-0.054412841796875,-0.021881103515625,0.05977132371149732,0
-0.0321502685546875,0.0350799560546875,-0.0037689208984375,0.047733089672427585,0
-0.01617431640625,0.01483154296875,0.0164794921875,0.027443703117495624,0
-0.0076446533203125,-0.120452880859375,0.005828857421875,0.12083589206256186,0
0.0062103271484375,0.0542449951171875,-0.031463623046875,0.06301624579257446,0
-0.02789306640625,0.0222930908203125,-0.0506439208984375,0.061966214793493464,0
-0.0193634033203125,0.0361480712890625,-0.021881103515625,0.04648018004618453,0
0.0243072509765625,-0.042694091796875,0.0186004638671875,0.05253194438122518,0
-0.056640625,-0.060791015625,0.003692626953125,0.0831705685619893,0
0.020050048828125,0.15545654296875,-0.0240020751953125,0.15857124841372236,0
0.017913818359375,-0.132171630859375,-0.0378570556640625,0.1386484819815619,0
-0.003387451171875,-0.02777099609375,-0.0485076904296875,0.05599731315253716,0
0.0062103271484375,0.1362762451171875,-0.04425048828125,0.14341509285866474,0
-0.02789306640625,-0.13323974609375,-0.03253173828125,0.13996130568221413,0
-0.0087127685546875,0.0712890625,-0.0133514404296875,0.0730500084159061,0
-0.0065765380859375,0.0169677734375,-0.008026123046875,0.01988906332097354,0
-0.0374755859375,-0.084228515625,-0.043182373046875,0.1018016685900054,0
-0.01190185546875,0.173553466796875,-0.05596923828125,0.18274303169914946,0
0.022186279296875,-0.083160400390625,-0.0261383056640625,0.08995050975484224,0
-0.0087127685546875,-0.12152099609375,-0.0240020751953125,0.12417473350559763,0
0.0093994140625,0.212982177734375,-0.0378570556640625,0.21652462603765685,0
-0.0182952880859375,-0.0469512939453125,-0.0133514404296875,0.052128711194830805,0
0.0594635009765625,-0.134307861328125,0.01220703125,0.1473890130737803,0
-0.0257568359375,0.0819549560546875,-0.03253173828125,0.09186045620960522,0
0.0051422119140625,0.0808868408203125,-0.0698089599609375,0.10696922105020432,0
0.0370941162109375,-0.1279144287109375,-0.0708770751953125,0.15086959374956252,0
-0.0065765380859375,0.0563812255859375,-0.0282745361328125,0.06341563565315639,0
-0.0523834228515625,0.03826904296875,0.0313873291015625,0.07206737866413226,0
0.0019378662109375,-0.0458831787109375,0.0303192138671875,0.055029775064010356,0
-0.024688720703125,0.0329437255859375,-0.021881103515625,0.04662193342730397,0
-0.0065765380859375,0.1479949951171875,-0.06768798828125,0.16287244454018235,0
0.0690460205078125,0.0233612060546875,-0.064483642578125,0.09732029108278606,0
-0.003387451171875,-0.142822265625,-0.05169677734375,0.15192837513588156,0
-0.0289459228515625,0.140533447265625,-0.005889892578125,0.14360434215117127,0
-0.0182952880859375,-0.083160400390625,0.02606201171875,0.08904829147212635,0
-0.0193634033203125,-0.0916900634765625,-0.0016326904296875,0.0937265960468017,0
0.0370941162109375,0.232147216796875,-0.05596923828125,0.2416626974892674,0
0.0360260009765625,-0.014984130859375,-0.0836639404296875,0.09231496006713351,0
-0.0055084228515625,-0.073577880859375,-0.0421142578125,0.08495680069991875,0
0.0125885009765625,0.0712890625,0.0313873291015625,0.07890351840758189,0
-0.0726318359375,-0.119384765625,0.04949951171875,0.1482508263564921,0
0.00726318359375,0.0467987060546875,0.00262451171875,0.04743164329929356,0
-0.012969970703125,0.0670318603515625,-0.045318603515625,0.08194672822533988,0
0.041351318359375,0.0222930908203125,-0.041046142578125,0.0623834853861569,0
0.022186279296875,-0.02777099609375,-0.0229339599609375,0.04230160437345026,0
-0.038543701171875,0.03826904296875,-0.043182373046875,0.06938914822744482,0
0.0093994140625,0.185272216796875,-0.0367889404296875,0.18912315944771457,0
8.697509765625E-4,-0.1939544677734375,-0.008026123046875,0.19412241160464244,0
-0.024688720703125,-0.03948974609375,0.005828857421875,0.04693557877932586,0
0.00726318359375,0.2076568603515625,-0.0154876708984375,0.20836024917638,0
0.0509490966796875,-0.0682525634765625,-0.03997802734375,0.09408754191653622,0
-0.0321502685546875,-0.1257781982421875,-0.05596923828125,0.14137308992510875,0
-1.8310546875E-4,0.2023162841796875,-0.017608642578125,0.20308120707079944,0
0.031768798828125,-0.1811676025390625,-5.645751953125E-4,0.18393280168008305,0
-0.0438690185546875,-0.0810394287109375,-0.0495758056640625,0.10464052896458202,0
0.03070068359375,0.382354736328125,-0.0506439208984375,0.3869140512951691,0
0.017913818359375,-0.1620025634765625,-0.0261383056640625,0.16507254915393504,0
-0.0214996337890625,-0.050140380859375,-0.045318603515625,0.07092297138722684,0
-0.0182952880859375,0.2364044189453125,-0.066619873046875,0.24629245694458451,0
0.090362548828125,-0.1055450439453125,-0.0495758056640625,0.1475225645092103,0
0.010467529296875,-0.0650634765625,-0.0591583251953125,0.08855807468488838,0
0.041351318359375,0.2832794189453125,-0.0570220947265625,0.2919052586286471,0
0.045623779296875,-0.189697265625,-0.005889892578125,0.19519547294318487,0
-0.0076446533203125,-0.256805419921875,0.036712646484375,0.2595289633885301,0
-0.015106201171875,0.177825927734375,0.027130126953125,0.1805167628696266,0
-0.083282470703125,-0.060791015625,-0.041046142578125,0.11097884180184812,0
0.0328369140625,0.0595703125,-0.0730133056640625,0.09978891652127247,0
-0.0321502685546875,0.1341400146484375,-0.07940673828125,0.15916222347808695,0
-0.01190185546875,0.222564697265625,-0.0953826904296875,0.242434643287926,0
0.0626678466796875,0.2236328125,-0.109222412109375,0.25664845439066863,0
0.1425628662109375,0.224700927734375,-0.1262664794921875,0.2945469429315427,0
0.0679931640625,0.07342529296875,-0.146514892578125,0.17742873993227906,0
0.0402984619140625,0.1266937255859375,-0.125213623046875,0.18263000173029864,0
0.0615997314453125,0.0926055908203125,-0.0602264404296875,0.1264814076935597,0
-0.0321502685546875,-0.4091339111328125,-0.0048370361328125,0.4104236761269028,0
-0.050262451171875,-0.1928863525390625,0.02392578125,0.20075831739196132,0
-0.015106201171875,-0.0576019287109375,0.0452423095703125,0.07478667047222436,0
-0.07049560546875,-0.223785400390625,0.00262451171875,0.23464105327107584,0
0.0583953857421875,0.0340118408203125,-0.05169677734375,0.08508456487339178,0
0.04241943359375,-0.1044769287109375,-0.0719451904296875,0.13375704618915923,0
-0.0289459228515625,-0.212066650390625,-0.03253173828125,0.21649121149189388,0
-0.0310821533203125,-0.042694091796875,0.0281982421875,0.05986674028082962,0
0.0275115966796875,0.14373779296875,0.036712646484375,0.15088160753146726,0
0.0019378662109375,0.1373443603515625,-0.07940673828125,0.15865893838765682,0
0.1031494140625,0.1234893798828125,-0.18060302734375,0.24188195892006076,0
0.1180572509765625,-0.0671844482421875,-0.1145477294921875,0.17768637236874865,0
-0.0321502685546875,-0.01605224609375,-0.008026123046875,0.03682028006352502,0
0.0349578857421875,0.1810150146484375,0.0441741943359375,0.18957808087689634,0
-0.068359375,-0.0927581787109375,-0.0133514404296875,0.11599717595574617,0
0.10101318359375,0.3599853515625,-0.064483642578125,0.37940908892574615,0
0.0349578857421875,-0.200347900390625,0.02392578125,0.20477738638560286,0
-0.0289459228515625,-0.506072998046875,0.0218048095703125,0.5073688949100827,0
0.0168609619140625,0.6912841796875,-0.0303955078125,0.6921574936516016,0
0.0402984619140625,0.3205718994140625,-0.066619873046875,0.3298916734495745,0
0.113800048828125,-0.348419189453125,-0.1081695556640625,0.38216100725350954,0
0.0562744140625,0.415374755859375,-0.1156158447265625,0.43482182676948233,0
-0.038543701171875,0.484619140625,-0.0804595947265625,0.49276269617707774,0
0.029632568359375,-0.1971435546875,-0.07513427734375,0.21304654396249634,0
0.0477447509765625,-0.0597381591796875,-0.0250701904296875,0.08047809239894073,1
-0.091796875,0.9671783447265625,0.034576416015625,0.9721399823648159,1
-0.0736846923828125,0.2982025146484375,0.0984954833984375,0.3225764000730574,1
0.07757568359375,-0.69036865234375,0.0771942138671875,0.6989891340203624,1
0.0935516357421875,0.060638427734375,-0.0122833251953125,0.11215974119972706,1
0.1074066162109375,-0.0235137939453125,-0.017608642578125,0.1113514436593904,1
0.0157928466796875,-0.063995361328125,-0.052764892578125,0.08443313429303963,1
-0.0374755859375,0.5496063232421875,-0.12200927734375,0.5642320390115213,1
0.033905029296875,-0.2067413330078125,-0.123077392578125,0.24298060488298048,1
0.0136566162109375,-0.336700439453125,-0.064483642578125,0.3430915756097834,1
-0.104583740234375,0.3525238037109375,-0.0261383056640625,0.36863803646290594,1
-0.026824951171875,0.1160430908203125,0.0303192138671875,0.12290171545600585,1
-0.0055084228515625,-0.3675994873046875,0.0793304443359375,0.37610243975214785,1
0.0243072509765625,-0.3516082763671875,0.1357879638671875,0.3777004018943304,1
-0.0406646728515625,-0.17584228515625,0.0303192138671875,0.18301196571978784,1
0.0030059814453125,0.128814697265625,-0.0932464599609375,0.1590508234852335,1
0.1287078857421875,-0.37078857421875,-0.0815277099609375,0.40086987179741035,1
0.03070068359375,-0.14495849609375,0.0079498291015625,0.1483869850951536,1
-0.0108489990234375,0.1245574951171875,0.095306396484375,0.15721189389011134,1
-0.0417327880859375,-0.1620025634765625,0.1368560791015625,0.2161389427230932,1
-0.0641021728515625,0.0904693603515625,0.081451416015625,0.13757952935543455,1
-0.0087127685546875,-0.049072265625,-0.0144195556640625,0.051883746732547226,1
-0.045989990234375,-0.003265380859375,-0.1081695556640625,0.11758569082365165,1
-0.050262451171875,0.2119140625,-0.1007080078125,0.2399499671194426,1
0.0488128662109375,-0.085296630859375,-0.0389251708984375,0.10570421029060258,1
0.00726318359375,0.07342529296875,0.01434326171875,0.0751648630690953,1
-0.12908935546875,0.2417449951171875,0.0441741943359375,0.277589740092777,1
-0.0736846923828125,-0.221649169921875,0.0984954833984375,0.2534938829015363,1
8.697509765625E-4,-0.315399169921875,0.1240692138671875,0.3389256005140227,1
-0.0182952880859375,0.46331787109375,-0.0165557861328125,0.46397441879425594,1
0.0253753662109375,0.4079132080078125,-0.1497039794921875,0.4352566782409678,1
0.125518798828125,-0.166259765625,-0.1593017578125,0.26224860069614797,1
0.017913818359375,0.0052490234375,-0.1411895751953125,0.14241823366090772,1
0.041351318359375,0.0776824951171875,-0.0229339599609375,0.09094211399115444,1
0.0147247314453125,-0.4655914306640625,0.0548248291015625,0.46903940123401217,1
-0.0417327880859375,-0.107666015625,0.0761260986328125,0.13830683068829683,1
-0.1429290771484375,0.0595703125,0.0771942138671875,0.17302106773576661,1
0.0019378662109375,-0.1918182373046875,0.046295166015625,0.197335333593716,1
0.0583953857421875,0.1064453125,-0.029327392578125,0.12490284858494217,1
-0.0076446533203125,0.349334716796875,-0.1166839599609375,0.36838611753988,1
0.053070068359375,-0.0714569091796875,-0.09857177734375,0.1328115857667872,1
0.123382568359375,-0.3612060546875,-0.0367889404296875,0.3834664238962835,1
-0.0545196533203125,0.312042236328125,-0.0346527099609375,0.3186590029458784,1
-0.149322509765625,0.2843475341796875,-0.0378570556640625,0.3233943239766673,1
0.043487548828125,-0.73724365234375,0.01434326171875,0.7386644021346658,1
-0.104583740234375,-0.22271728515625,0.0420379638671875,0.2496155809136933,1
-0.069427490234375,0.3631744384765625,0.06866455078125,0.3760726920383898,1
0.075439453125,-0.28875732421875,0.0750579833984375,0.30774275661599493,1
0.0807647705078125,0.2726287841796875,-0.0463714599609375,0.28809671018146504,1
0.1265716552734375,0.1565093994140625,-0.1529083251953125,0.2527776333808905,1
0.123382568359375,-0.268524169921875,-0.085784912109375,0.30771340424622556,1
-0.081146240234375,0.0127105712890625,0.034576416015625,0.08911677435339999,1
0.0275115966796875,-0.0117950439453125,0.1027679443359375,0.10703859769527997,1
0.0147247314453125,0.1927337646484375,-0.0048370361328125,0.19335593776826718,1
-0.0449371337890625,0.6039276123046875,-0.1507720947265625,0.6240834330804276,1
0.0594635009765625,-0.254669189453125,-0.1614227294921875,0.3073265390457018,1
0.146820068359375,-0.163055419921875,-0.101776123046875,0.24187100210939544,1
-0.1248321533203125,0.3621063232421875,-0.0154876708984375,0.38333265421096063,1
-0.022552490234375,-0.1151275634765625,0.0750579833984375,0.13927193385482098,1
0.0062103271484375,-0.5934295654296875,0.1602783203125,0.6147246190381143,1
-0.115234375,0.41644287109375,0.05908203125,0.4361127291000256,1
0.022186279296875,0.1533203125,-0.0623626708984375,0.16699835908093055,1
0.0381622314453125,-0.1374969482421875,-0.131591796875,0.1941086491880041,1
0.0402984619140625,0.2726287841796875,-0.1529083251953125,0.3151688054201577,1
0.064788818359375,-0.12152099609375,-0.1028289794921875,0.1718683871438433,1
0.0243072509765625,0.2257537841796875,-0.03997802734375,0.23055120080317115,1
0.0285797119140625,0.1064453125,0.0196685791015625,0.11195649820438242,1
-0.012969970703125,-0.4655914306640625,0.04949951171875,0.4683949210956958,1
-0.0065765380859375,0.037200927734375,0.013275146484375,0.0400423449822259,1
-0.0449371337890625,-0.040557861328125,0.0100860595703125,0.061367863791592196,1
-0.02362060546875,-0.2908935546875,-0.010162353515625,0.2920278524223613,1
0.017913818359375,-0.3143310546875,-0.010162353515625,0.3150050638611153,1
-0.1013946533203125,0.2065887451171875,-0.0048370361328125,0.23018075994659232,1
-0.0428009033203125,0.1533203125,-0.0229339599609375,0.16082599935838196,1
-0.001251220703125,-0.4794464111328125,0.0186004638671875,0.4798087160082196,1
0.0328369140625,0.072357177734375,0.036712646484375,0.08753080890017317,1
-0.081146240234375,0.65399169921875,-0.0229339599609375,0.6594056577484703,1
0.0157928466796875,0.323760986328125,-0.1081695556640625,0.34171807538813215,1
0.1617279052734375,-0.404876708984375,-0.1177520751953125,0.4516044907161075,1
8.697509765625E-4,0.107513427734375,-0.0953826904296875,0.143728046127266,1
-0.0981903076171875,0.6582489013671875,-0.0282745361328125,0.6661324208103018,1
0.0264434814453125,-0.3377685546875,0.062286376953125,0.3444799660366014,1
-0.003387451171875,-0.177978515625,0.0313873291015625,0.18075671848551023,1
0.0040740966796875,0.0222930908203125,-0.05169677734375,0.05644587628700085,1
0.0253753662109375,-0.1609344482421875,-0.066619873046875,0.17601708248388354,1
-0.056640625,0.265167236328125,-0.066619873046875,0.279213235909525,1
0.113800048828125,-0.39422607421875,0.03778076171875,0.41205829037074354,1
-0.081146240234375,-0.1960906982421875,0.0569610595703125,0.21972900707156584,1
-0.20684814453125,0.6859588623046875,-0.017608642578125,0.7166838772874734,1
0.064788818359375,-0.451751708984375,-0.0048370361328125,0.45639959955422577,1
-0.003387451171875,-0.16839599609375,-0.06768798828125,0.18152231290783716,1
-0.138671875,0.5900726318359375,-0.109222412109375,0.6159100056540693,1
0.07757568359375,-0.6626739501953125,-0.0165557861328125,0.6674045587250453,1
0.0626678466796875,-0.2738494873046875,0.083587646484375,0.2931001455975515,1
-0.2143096923828125,0.8979339599609375,-0.0165557861328125,0.9233028402181062,1
0.055206298828125,-0.2962188720703125,0.03564453125,0.30342031607811076,1
0.168121337890625,-0.92791748046875,0.095306396484375,0.9478285414696287,1
-0.0960693359375,0.6135101318359375,-0.017608642578125,0.6212359161109938,1
0.123382568359375,0.222564697265625,-0.0911102294921875,0.2702949806452466,1
0.0935516357421875,0.0798187255859375,-0.0964508056640625,0.15628722090257052,1
0.04241943359375,0.7424163818359375,-0.1081695556640625,0.7514533552638779,1
0.0040740966796875,-0.0576019287109375,-0.031463623046875,0.06576123501129834,1
0.05413818359375,-0.2972869873046875,0.10595703125,0.3202145971295523,1
0.0168609619140625,0.1714324951171875,0.11553955078125,0.2074193342326241,1
-0.001251220703125,0.2374725341796875,0.015411376953125,0.23797537810152145,1
0.099945068359375,0.051055908203125,-0.0463714599609375,0.12143325224465866,1
0.022186279296875,-0.02777099609375,-0.1071014404296875,0.11284581407917585,1
0.087158203125,-0.2940826416015625,-0.0154876708984375,0.3071172746902885,1
0.0402984619140625,-0.27703857421875,0.11767578125,0.3036806334467097,1
-0.197265625,0.3844757080078125,0.1368560791015625,0.45328234384520477,1
0.113800048828125,-0.097015380859375,0.083587646484375,0.1713164612095699,1
0.0615997314453125,-0.508209228515625,-0.010162353515625,0.5120297064541841,1
-0.0491943359375,0.3312225341796875,-0.0836639404296875,0.34514939484948853,1
0.170257568359375,-0.6722564697265625,0.036712646484375,0.6944524599169871,1
-0.001251220703125,-0.1854400634765625,0.128326416015625,0.22551552439434122,1
-0.27716064453125,0.9821014404296875,0.050567626953125,1.0217134368631526,1
0.0275115966796875,-0.6839752197265625,0.074005126953125,0.6885170643979809,1
-0.0513153076171875,-0.416595458984375,0.0878448486328125,0.42883767870089307,1
-0.1567840576171875,0.8425445556640625,0.02606201171875,0.8574041039421787,1
0.1627960205078125,-0.324981689453125,0.027130126953125,0.36448825298146464,1
-0.1344146728515625,0.5016632080078125,-0.0485076904296875,0.5216188978337583,1
-0.0726318359375,0.793548583984375,-0.06341552734375,0.7993849309585117,1
0.16705322265625,-0.9918365478515625,0.0857086181640625,1.009451575897297,1
-0.0108489990234375,0.4324188232421875,0.0889129638671875,0.44159852198305255,1
-0.092864990234375,0.5346832275390625,0.0526885986328125,0.5452395332775395,1
0.1052703857421875,-0.6839752197265625,0.06121826171875,0.6947313371960226,1
-0.0449371337890625,0.3322906494140625,0.0569610595703125,0.3401190732501901,1
0.0062103271484375,0.1479949951171875,0.071868896484375,0.1646396824125605,1
0.0392303466796875,-0.3974151611328125,0.0771942138671875,0.40673920029104754,1
-0.0417327880859375,0.2939300537109375,0.0516204833984375,0.3013323354408364,1
0.0125885009765625,-0.209930419921875,0.05908203125,0.2184489367839488,1
0.017913818359375,-0.21099853515625,0.0857086181640625,0.22844529750881065,1
-0.05877685546875,0.13201904296875,0.08251953125,0.166412798434792,1
-0.0395965576171875,-0.315399169921875,0.0889129638671875,0.33007580781721463,1
-0.0097808837890625,-0.3516082763671875,0.1240692138671875,0.3729842027850798,1
-0.11737060546875,0.128814697265625,0.0995635986328125,0.20070375041949606,1
-0.0055084228515625,-0.0586700439453125,0.071868896484375,0.09293898568812942,1
-0.0300140380859375,-0.0938262939453125,0.03564453125,0.10476043397088673,1
-0.0076446533203125,0.1490631103515625,0.02392578125,0.15116446209507284,1
0.0445556640625,-0.3537445068359375,0.0452423095703125,0.3593984556059013,0
0.0157928466796875,-0.4432220458984375,0.0281982421875,0.4443988488273903,0
0.0019378662109375,0.4579925537109375,0.02606201171875,0.45873757534667436,0
-0.0790252685546875,0.0404052734375,0.0409698486328125,0.09775534608754241,0
0.0147247314453125,-0.3548126220703125,0.083587646484375,0.36482284624368555,0
-0.0726318359375,0.163970947265625,0.0857086181640625,0.19876574746779527,0
-0.05877685546875,0.1160430908203125,0.06866455078125,0.14709023828900572,0
-0.0651702880859375,-0.2376251220703125,0.07080078125,0.256370075698677,0
-0.012969970703125,0.1011199951171875,0.0548248291015625,0.11575506657833808,0
-0.0289459228515625,0.051055908203125,0.0654754638671875,0.08792956602188999,0
-0.068359375,-0.21099853515625,0.062286376953125,0.2303757338402217,0
-0.045989990234375,0.0659637451171875,0.060150146484375,0.10042078964903112,0
0.0285797119140625,-0.0128631591796875,0.04736328125,0.05679384832831269,0
0.0051422119140625,-0.2610626220703125,0.07080078125,0.2705418370810812,0
-0.08221435546875,0.01910400390625,0.0910491943359375,0.12415361049770285,0
-0.02789306640625,0.0915374755859375,0.1016998291015625,0.13964235686021845,0
0.00726318359375,-0.2067413330078125,0.1016998291015625,0.2305159166935133,0
-0.0193634033203125,-0.042694091796875,0.0654754638671875,0.08052802761230685,0
0.0019378662109375,0.142669677734375,0.0186004638671875,0.1438901300519131,0
0.0211181640625,-0.0181884765625,0.0196685791015625,0.034112322361717025,0
0.00726318359375,0.0127105712890625,0.0313873291015625,0.034633464835916304,0
0.029632568359375,0.1043243408203125,0.038848876953125,0.11519935952810155,0
0.01153564453125,0.0095062255859375,0.03564453125,0.03865193433289358,0
0.0062103271484375,0.051055908203125,-0.00909423828125,0.052230059311211774,0
0.029632568359375,0.1256256103515625,-0.0485076904296875,0.1378871970655653,0
0.0243072509765625,-0.0554656982421875,-0.0495758056640625,0.07826267717610925,0
-0.024688720703125,-0.0576019287109375,-5.645751953125E-4,0.06267243306532787,0
-0.0555877685546875,0.037200927734375,0.034576416015625,0.07529566774837225,0
0.0019378662109375,-0.0064697265625,0.0303192138671875,0.03106231505810966,0
-0.02362060546875,-0.02777099609375,0.005828857421875,0.03692068262632704,0
0.0583953857421875,0.12030029296875,-0.0122833251953125,0.1342872355892389,0
0.0946197509765625,0.015899658203125,-0.0186767578125,0.0977472131993014,0
0.0019378662109375,0.0020599365234375,-0.0282745361328125,0.028415630513113813,0
0.0605316162109375,0.1586456298828125,0.00262451171875,0.16982167265630266,0
0.0125885009765625,-0.072509765625,0.0281982421875,0.07881165732487962,0
-0.02789306640625,0.006317138671875,0.0175323486328125,0.033545679947284614,0
0.008331298828125,0.1682281494140625,0.0228729248046875,0.16998026792708776,0
-0.0108489990234375,-0.097015380859375,0.0516204833984375,0.11042807256032541,0
-0.015106201171875,0.074493408203125,0.0644073486328125,0.09962816738990647,0
0.0062103271484375,0.2427978515625,0.0431060791015625,0.2466728581383987,0
0.010467529296875,0.0553131103515625,0.015411376953125,0.05836625639816537,0
0.0062103271484375,0.117095947265625,-0.010162353515625,0.11770005292395236,0
0.0253753662109375,0.2662353515625,0.0164794921875,0.2679491468445179,0
0.04241943359375,-0.0938262939453125,0.050567626953125,0.1147164621037328,0
-0.036407470703125,-0.0416259765625,0.06121826171875,0.0824978873405015,0
0.0030059814453125,0.185272216796875,0.0793304443359375,0.20156425685079954,0
-0.0172271728515625,-0.186492919921875,0.11553955078125,0.2200585659777359,0
-0.012969970703125,-0.0576019287109375,0.11981201171875,0.13357065726930348,0
0.02325439453125,0.0361480712890625,0.0793304443359375,0.09022621194238098,0
-0.034271240234375,-0.1598663330078125,0.0782623291015625,0.18126432217336186,0
0.057342529296875,-0.0235137939453125,0.10595703125,0.1227516054606988,0
-0.024688720703125,-0.1044769287109375,0.107025146484375,0.1515893912608305,0
0.0019378662109375,-0.0224456787109375,0.09637451171875,0.09897277568742632,0
-0.00445556640625,0.0052490234375,0.0899810791015625,0.09024410737178121,0
-0.0097808837890625,-0.038421630859375,0.08465576171875,0.09347986626953957,0
0.0243072509765625,0.03082275390625,0.0771942138671875,0.08660156616930165,0
-0.0172271728515625,0.0766143798828125,0.050567626953125,0.09340034038993611,0
0.02325439453125,0.084075927734375,0.0281982421875,0.09167698376296955,0
0.031768798828125,0.060638427734375,0.0111541748046875,0.06935914584719466,0
0.008331298828125,0.03082275390625,0.0068817138671875,0.032662067973087794,0
0.0264434814453125,0.006317138671875,0.03564453125,0.04482963930236905,0
-0.0204315185546875,-0.07464599609375,0.0633392333984375,0.10000665063274752,0
0.0168609619140625,-0.050140380859375,0.0431060791015625,0.06823843407421369,0
-0.038543701171875,-0.0458831787109375,0.00262451171875,0.05998142254405511,0
-0.0023193359375,-0.061859130859375,-0.019744873046875,0.06497531378535598,0
0.0147247314453125,-0.03948974609375,0.00262451171875,0.04222731135707404,0
-0.0438690185546875,-0.083160400390625,0.0079498291015625,0.09435752627546268,0
-0.0523834228515625,-0.030975341796875,-0.0027008056640625,0.060916246932274674,0
-0.0097808837890625,-0.0341644287109375,-0.005889892578125,0.03602172554753212,0
-0.02362060546875,-0.0703887939453125,-0.017608642578125,0.0763058294577168,0
-0.026824951171875,0.0702362060546875,-0.0250701904296875,0.07925412982621659,0
-0.001251220703125,-0.005401611328125,-0.052764892578125,0.05305541298462512,0
0.0157928466796875,-0.038421630859375,-0.0602264404296875,0.07316324111856234,0
-0.00445556640625,0.0585174560546875,-0.03997802734375,0.07100976978846227,0
-0.0097808837890625,0.015899658203125,-0.0250701904296875,0.0312566675583329,0
0.00726318359375,-0.0213775634765625,-0.0261383056640625,0.034539326558271806,0
0.0168609619140625,-0.0139312744140625,-0.0495758056640625,0.05418609554773503,0
0.0125885009765625,0.0936737060546875,-0.06341552734375,0.11381899081938311,0
0.0275115966796875,0.0244293212890625,-0.0474395751953125,0.0600349313751731,0
0.0125885009765625,-0.0224456787109375,-0.052764892578125,0.05870615588175246,0
0.008331298828125,0.1597137451171875,-0.06768798828125,0.1736650646419253,0
0.02325439453125,0.04998779296875,-0.0730133056640625,0.09149037717101981,0
0.01153564453125,-0.060791015625,-0.041046142578125,0.0742523029677472,0
-0.0523834228515625,0.004180908203125,0.0090179443359375,0.053318161100085075,0
-0.0065765380859375,0.03082275390625,0.036712646484375,0.04838503305204749,0
-1.8310546875E-4,-0.1279144287109375,0.0186004638671875,0.12925986173647544,0
-0.01190185546875,0.0670318603515625,-0.0261383056640625,0.07292554757270152,0
0.0328369140625,0.1266937255859375,-0.031463623046875,0.13460877610032967,0
-0.001251220703125,-0.1470794677734375,-0.0122833251953125,0.14759680034343348,0
0.0051422119140625,0.051055908203125,0.01220703125,0.05274618202063093,0
0.008331298828125,-0.0363006591796875,0.0228729248046875,0.043707197189527446,0
-0.0097808837890625,-0.1502838134765625,0.0228729248046875,0.15232879232067148,0
-0.0193634033203125,0.0574493408203125,0.0335235595703125,0.0692762383151525,0
-0.0055084228515625,-0.0714569091796875,0.027130126953125,0.07663208453590704,0
0.0125885009765625,-0.0938262939453125,-0.010162353515625,0.09521090915081966,0
-0.0076446533203125,0.0691680908203125,-0.0495758056640625,0.08544253050650862,0
0.008331298828125,-0.0117950439453125,-0.033599853515625,0.036571625040553335,0
8.697509765625E-4,-0.0661163330078125,4.8828125E-4,0.06612385632841063,0
0.0051422119140625,0.0127105712890625,-0.0037689208984375,0.014219906139006163,0
0.01153564453125,0.0020599365234375,-0.029327392578125,0.0315818047087783,0
0.04241943359375,0.018035888671875,-0.0474395751953125,0.06614540740906011,0
0.0211181640625,-0.026702880859375,-0.054901123046875,0.06459995364834832,0
0.0125885009765625,-0.003265380859375,-0.0591583251953125,0.06057095433380618,0
0.0062103271484375,-0.0128631591796875,-0.0538330078125,0.05569579658747404,0
8.697509765625E-4,-0.063995361328125,-0.0421142578125,0.07661444674065215,0
-0.0023193359375,-0.017120361328125,-0.045318603515625,0.04850012284317387,0
-0.015106201171875,-0.0022125244140625,-0.05596923828125,0.05801420698338745,0
0.0040740966796875,-0.019256591796875,-0.0495758056640625,0.053340182776475425,0
0.008331298828125,-0.0650634765625,-0.0538330078125,0.08485669833727441,0
-0.0097808837890625,-0.003265380859375,-0.0719451904296875,0.07268038817876468,0
0.0062103271484375,-0.028839111328125,-0.0804595947265625,0.08569719300565971,0
0.008331298828125,-0.049072265625,-0.076202392578125,0.09101814340209732,0
-0.012969970703125,0.051055908203125,-0.074066162109375,0.09088851562270156,0
0.00726318359375,0.0201568603515625,-0.07513427734375,0.07812945979025106,0
0.00726318359375,-0.0416259765625,-0.0772705078125,0.08806933142870986,0
0.0136566162109375,-0.0064697265625,-0.0953826904296875,0.09657234677552347,0
0.010467529296875,-0.0022125244140625,-0.1166839599609375,0.11717342252417749,0
0.01153564453125,-0.0064697265625,-0.1166839599609375,0.1174311499079803,0
0.01153564453125,-0.0576019287109375,-0.0943145751953125,0.11111387123236927,0
0.0030059814453125,-0.052276611328125,-0.0836639404296875,0.09869921450864595,0
0.008331298828125,0.015899658203125,-0.1060333251953125,0.10754197191382818,0
8.697509765625E-4,-0.0117950439453125,-0.132659912109375,0.13318607963785173,0
0.0211181640625,-0.028839111328125,-0.1358642578125,0.14048760709225608,0
0.01153564453125,-0.0650634765625,-0.1294708251953125,0.14535825278911932,0
-0.0065765380859375,-0.0128631591796875,-0.1294708251953125,0.13027435010021324,0
0.0243072509765625,-0.0330963134765625,-0.134796142578125,0.14091205934808665,0
0.008331298828125,-0.0693206787109375,-0.1486358642578125,0.16421749961796217,0
0.02325439453125,0.051055908203125,-0.1614227294921875,0.17089403214907448,0
0.0285797119140625,-0.0576019287109375,-0.1646270751953125,0.1767395145734926,0
0.0030059814453125,0.004180908203125,-0.1593017578125,0.15938496152399362,0
0.0275115966796875,0.0521240234375,-0.1529083251953125,0.1638742129964757,0
0.0168609619140625,-0.0671844482421875,-0.146514892578125,0.1620637401439759,0
0.0243072509765625,0.0350799560546875,-0.143310546875,0.14953046048363516,0
0.0157928466796875,0.0318756103515625,-0.1422576904296875,0.14663805450128406,0
0.010467529296875,-0.0299072265625,-0.146514892578125,0.14990205174520177,0
0.031768798828125,0.0201568603515625,-0.1358642578125,0.14097748809350993,0
0.0136566162109375,-0.0693206787109375,-0.1177520751953125,0.13732228834417373,0
-0.0108489990234375,-0.0245819091796875,-0.1177520751953125,0.12077881540871098,0
0.020050048828125,0.02655029296875,-0.1177520751953125,0.12236206000039057,0
0.0051422119140625,-0.1044769287109375,-0.1188201904296875,0.158303849068766,0
0.033905029296875,0.0052490234375,-0.1177520751953125,0.12264849967069269,0
-0.01190185546875,-0.0011444091796875,-0.1007080078125,0.10141531774604923,0
0.0370941162109375,-0.1119232177734375,-0.087921142578125,0.14708129536577327,0
-0.0087127685546875,-0.0448150634765625,-0.0804595947265625,0.0925097218342946,0
0.0093994140625,-0.02032470703125,-0.0911102294921875,0.09382172786057363,0
0.0125885009765625,-0.0437469482421875,-0.1028289794921875,0.11245472360352972,0
0.0253753662109375,-0.0235137939453125,-0.1188201904296875,0.12375397112735011,0
-0.01190185546875,0.0329437255859375,-0.1124267578125,0.11775703414790599,0
0.0349578857421875,-0.007537841796875,-0.0847320556640625,0.09196952805998483,0
-0.0204315185546875,-0.0714569091796875,-0.0698089599609375,0.10196483565814453,0
0.0136566162109375,0.09686279296875,-0.090057373046875,0.13296328165378504,0
-0.00445556640625,0.018035888671875,-0.0964508056640625,0.09822374084421506,0
0.020050048828125,-0.0799713134765625,-0.0932464599609375,0.1244681394270178,0
0.020050048828125,0.0478668212890625,-0.07940673828125,0.09486130466526474,0
-0.0076446533203125,-0.0117950439453125,-0.074066162109375,0.0753880637479955,0
0.0285797119140625,-0.06292724609375,-0.0612945556640625,0.09237781545419353,0
-1.8310546875E-4,-0.0299072265625,-0.04425048828125,0.053409563201756625,0
-0.01190185546875,-7.62939453125E-5,-0.0367889404296875,0.03866634353419264,0
0.0147247314453125,-0.030975341796875,-0.03997802734375,0.05267382828186526,0
0.0062103271484375,-0.02032470703125,-0.0570220947265625,0.060853768709931436,0
-0.0172271728515625,0.04998779296875,-0.064483642578125,0.0833888187378116,0
-0.00445556640625,0.048919677734375,-0.0389251708984375,0.06267500196336794,0
0.0030059814453125,-0.1002044677734375,-0.019744873046875,0.10217549264791753,0
-0.0065765380859375,0.051055908203125,-0.0250701904296875,0.05725793450538107,0
0.0040740966796875,0.0989990234375,-0.0303955078125,0.10364020359162686,0
0.033905029296875,-0.0885009765625,-0.0240020751953125,0.09776540020794454,0
0.017913818359375,0.004180908203125,-0.0154876708984375,0.024046888186914053,0
0.0093994140625,0.0691680908203125,-0.0154876708984375,0.07150134070284017,0
0.0030059814453125,-0.038421630859375,-0.0240020751953125,0.04540217237121012,0
0.01153564453125,0.00738525390625,-0.017608642578125,0.022308683588578137,0
0.0062103271484375,-0.0352325439453125,-0.0037689208984375,0.03597367205176134,0
-0.001251220703125,-0.0821075439453125,-0.0133514404296875,0.08319540424522767,0
-0.034271240234375,0.053192138671875,-0.01123046875,0.06426542579050536,0
0.008331298828125,-0.0416259765625,0.0186004638671875,0.04634770459278285,0
-0.024688720703125,-0.134307861328125,0.03778076171875,0.14168810994766193,0
-0.03533935546875,0.060638427734375,0.0111541748046875,0.07106549499312036,0
0.0211181640625,0.0595703125,-0.00909423828125,0.06385377165551363,0
0.01153564453125,-0.1034088134765625,-0.0069580078125,0.10428263360742604,0
-0.02362060546875,0.060638427734375,-0.0069580078125,0.06544742770748269,0
-1.8310546875E-4,0.105377197265625,0.0068817138671875,0.10560182392800312,0
0.020050048828125,-0.174774169921875,0.0164794921875,0.176690657909943,0
-0.0428009033203125,0.03082275390625,-0.0037689208984375,0.05287876935159012,0
0.0040740966796875,0.1884765625,-0.0303955078125,0.19095522975491297,0
0.01898193359375,-0.18756103515625,-0.0282745361328125,0.19062766091353925,0
-0.0108489990234375,-0.028839111328125,0.0068817138671875,0.031571396987722544,0
-0.01617431640625,0.1149749755859375,0.0228729248046875,0.11833859983672826,0
0.0040740966796875,-0.0938262939453125,-5.645751953125E-4,0.09391640136003289,0
-0.0374755859375,0.0329437255859375,-0.031463623046875,0.0589887122429058,0
0.0168609619140625,0.0915374755859375,-0.0229339599609375,0.0958611912757371,0
-0.0065765380859375,-0.2046051025390625,0.0079498291015625,0.20486507418532843,0
-0.034271240234375,0.037200927734375,0.0186004638671875,0.053892524412714075,0
-0.003387451171875,0.0894012451171875,0.01434326171875,0.09060787278530402,0
0.0051422119140625,-0.14068603515625,-0.0122833251953125,0.14131483612561185,0
0.01898193359375,0.086212158203125,-0.02081298828125,0.09069746692269656,0
-0.0076446533203125,0.0137786865234375,-0.01123046875,0.019349841214946692,0
0.0040740966796875,-0.108734130859375,0.0196685791015625,0.11057378749673699,0
-0.0172271728515625,0.01483154296875,0.034576416015625,0.04137968941131698,0
0.0040740966796875,0.0212249755859375,0.02392578125,0.03224191155626377,0
-0.0214996337890625,-0.02777099609375,-0.0069580078125,0.03580330082299238,0
0.00726318359375,0.15545654296875,-0.0303955078125,0.15856663420433406,0
0.01898193359375,0.0457305908203125,-0.0282745361328125,0.05701798078902921,0
-0.0087127685546875,-0.0107269287109375,-0.017608642578125,0.022384003862161102,0
-0.012969970703125,0.1107177734375,0.013275146484375,0.11226252718150931,0
-0.0193634033203125,-0.042694091796875,0.046295166015625,0.0658860323507142,0
-0.00445556640625,-0.0437469482421875,0.06121826171875,0.07537455220676609,0
-0.0193634033203125,0.00311279296875,0.048431396484375,0.05225161273719807,0
-0.0108489990234375,-0.02777099609375,0.04736328125,0.055966145254217996,0
0.0051422119140625,-0.00860595703125,0.05908203125,0.0599265488445549,0
-0.0321502685546875,-0.0107269287109375,0.062286376953125,0.07091050360598805,0
-0.0172271728515625,0.0755615234375,0.0654754638671875,0.10145617614160732,0
-0.0087127685546875,-0.007537841796875,0.0782623291015625,0.07910577444942653,0
-0.0193634033203125,-0.0107269287109375,0.0793304443359375,0.08236096032861627,0
0.0019378662109375,0.0872802734375,0.07080078125,0.11240263378758797,0
-0.026824951171875,0.048919677734375,0.0665435791015625,0.08683755405729994,0
0.0136566162109375,0.0201568603515625,0.0771942138671875,0.08094287393055868,0
-0.0321502685546875,-0.1055450439453125,0.0889129638671875,0.14170007485250058,0
-0.0214996337890625,0.0574493408203125,0.10809326171875,0.12428521329084327,0
-0.02362060546875,-0.028839111328125,0.118743896484375,0.1244577852012412,0
-0.034271240234375,-0.0554656982421875,0.1091461181640625,0.12713707837990906,0
-1.8310546875E-4,0.1011199951171875,0.09637451171875,0.13969013368574099,0
-0.0065765380859375,-0.0320281982421875,0.08038330078125,0.08677863435388665,0
-0.0214996337890625,0.0169677734375,0.0654754638671875,0.07097306501140771,0
-0.0257568359375,0.1128387451171875,0.0761260986328125,0.1385322341196647,0
-0.01617431640625,-0.0363006591796875,0.118743896484375,0.12521764779926703,0
-0.012969970703125,-0.07464599609375,0.1357879638671875,0.1554947459050134,0
-0.0023193359375,0.0819549560546875,0.0910491943359375,0.12252326281298606,0
-0.003387451171875,0.004180908203125,0.0654754638671875,0.0656962037523339,0
0.01898193359375,-0.03948974609375,0.09423828125,0.10392597126060685,0
0.0062103271484375,-0.0181884765625,0.11767578125,0.1192349711106313,0
-0.0289459228515625,0.0350799560546875,0.0995635986328125,0.10945948994602157,0
0.03070068359375,0.1011199951171875,0.08465576171875,0.1354045175679355,0
-0.0300140380859375,-0.073577880859375,0.0974273681640625,0.12572445705333657,0
0.0019378662109375,0.1000518798828125,0.1016998291015625,0.14267792132219775,0
0.0147247314453125,0.0425262451171875,0.1006317138671875,0.11023629654406568,0
0.01153564453125,-0.0682525634765625,0.0793304443359375,0.10528439064937799,0
0.0136566162109375,0.175689697265625,0.081451416015625,0.1941332173085539,0
0.0040740966796875,-0.073577880859375,0.1006317138671875,0.12472788241351378,0
-0.0087127685546875,-0.0373687744140625,0.09637451171875,0.10373227147866822,0
-0.024688720703125,0.16717529296875,0.0857086181640625,0.1894810775162981,0
-1.8310546875E-4,-0.0341644287109375,0.09210205078125,0.09823456354496299,0
-0.0140380859375,0.00311279296875,0.09637451171875,0.0974412840939733,0
0.033905029296875,0.128814697265625,0.0857086181640625,0.1583942690593622,0
0.0051422119140625,-0.094879150390625,0.06866455078125,0.11723189009909728,0
0.0147247314453125,0.074493408203125,0.06866455078125,0.1023762966503714,0
0.043487548828125,0.0798187255859375,0.10809326171875,0.14123154423229936,0
0.0019378662109375,-0.1481475830078125,0.1208648681640625,0.19120611400482046,0
8.697509765625E-4,0.117095947265625,0.093170166015625,0.14964256469392118,0
0.0402984619140625,0.1149749755859375,0.095306396484375,0.15468199718927525,0
0.0030059814453125,-0.179046630859375,0.093170166015625,0.20185988155629633,0
-0.0108489990234375,0.16290283203125,0.0867767333984375,0.1848924955830163,0
-0.0097808837890625,0.037200927734375,0.0867767333984375,0.09491984076733818,0
0.0030059814453125,-0.13323974609375,0.08038330078125,0.15563849430030297,0
-0.0491943359375,0.128814697265625,0.081451416015625,0.1601488123306465,0
-0.0076446533203125,0.0435943603515625,0.08251953125,0.09363963913092241,0
0.00726318359375,-0.0799713134765625,0.069732666015625,0.10635228970139687,0
-0.022552490234375,0.0712890625,0.0516204833984375,0.09085933938890843,0
0.01153564453125,0.0755615234375,0.069732666015625,0.10346622457881569,0
0.010467529296875,-0.106597900390625,0.083587646484375,0.1358660229125273,0
-0.0065765380859375,0.1117706298828125,0.06121826171875,0.127607210319252,0
0.01898193359375,0.0798187255859375,0.036712646484375,0.08988415415971505,0
0.033905029296875,-0.0927581787109375,0.0196685791015625,0.10069996888413915,0
0.0062103271484375,0.10858154296875,0.0218048095703125,0.11092325886468858,0
-0.0428009033203125,0.0233612060546875,0.048431396484375,0.06872600263940161,0
-0.015106201171875,-0.0927581787109375,0.0782623291015625,0.12229991491418403,0
-0.0214996337890625,-0.0576019287109375,0.07080078125,0.09377082206045799,0
-0.057708740234375,0.0318756103515625,0.03564453125,0.0749458860962724,0
0.033905029296875,0.0457305908203125,0.02606201171875,0.06261043366105257,0
-0.0641021728515625,-0.1460113525390625,0.034576416015625,0.16316841661015025,0
-0.0108489990234375,0.1416015625,0.0569610595703125,0.15301393920040307,0
0.0701141357421875,0.039337158203125,0.0516204833984375,0.09554097734825587,0
-0.0321502685546875,-0.1460113525390625,-0.010162353515625,0.1498540231939118,0
0.00726318359375,0.3322906494140625,-0.02081298828125,0.33302103537934563,0
0.0690460205078125,0.041473388671875,0.0537567138671875,0.09683583635045624,0
-0.01190185546875,-0.3185882568359375,0.05908203125,0.3242388286032169,0
0.00726318359375,0.29925537109375,0.0090179443359375,0.2994793052690296,0
0.0285797119140625,0.0286865234375,0.0111541748046875,0.04200157348950832,0
8.697509765625E-4,-0.2962188720703125,0.046295166015625,0.29981597528114423,0
-1.8310546875E-4,0.22149658203125,0.0558929443359375,0.22843990589579385,0
-0.0087127685546875,-0.01605224609375,0.03778076171875,0.04196394758111811,0
0.031768798828125,-0.1279144287109375,0.0111541748046875,0.1322715890393735,0
0.010467529296875,0.117095947265625,0.00262451171875,0.11759216852059844,0
0.0275115966796875,-0.1279144287109375,0.0228729248046875,0.13282379197053587,0
-0.022552490234375,-0.107666015625,0.0431060791015625,0.11814702616589419,0
-0.0140380859375,0.1362762451171875,0.048431396484375,0.14530616988089368,0
0.0445556640625,-0.174774169921875,0.0313873291015625,0.1830747991943746,0
0.0157928466796875,-0.1172637939453125,-0.00909423828125,0.1186714647529598,0
-0.0214996337890625,0.1916656494140625,-0.021881103515625,0.19410496673047709,0
0.010467529296875,-0.08636474609375,0.0164794921875,0.08854384337816332,0
0.0147247314453125,-0.154541015625,0.036712646484375,0.15952291885001904,0
-0.0140380859375,0.1266937255859375,-0.0027008056640625,0.12749769531590954,0
-0.001251220703125,-0.0363006591796875,-0.0463714599609375,0.05890344394886082,0
-0.012969970703125,-0.1055450439453125,-0.033599853515625,0.11152096931846192,0
0.029632568359375,0.1266937255859375,-0.0016326904296875,0.13012322962660072,0
-0.02362060546875,-0.03948974609375,-0.0037689208984375,0.04616901356968616,0
-0.0321502685546875,-0.040557861328125,-0.0240020751953125,0.05704979839869183,0
0.0285797119140625,0.0819549560546875,-0.03253173828125,0.09269157863914236,0
0.008331298828125,-0.0437469482421875,-0.043182373046875,0.06203163195199386,0
-0.0534515380859375,0.07342529296875,-0.0421142578125,0.10010969624565301,0
0.02325439453125,0.1000518798828125,-0.0144195556640625,0.10372593272007134,0
0.0168609619140625,-0.2088623046875,-0.0186767578125,0.21037246882239208,0
-0.0395965576171875,0.0659637451171875,-0.0485076904296875,0.0909510806743874,0
0.043487548828125,0.1266937255859375,-0.054901123046875,0.144763946885029,0
-0.0428009033203125,-0.301544189453125,-0.0186767578125,0.3051387173079871,0
-0.0332183837890625,0.029754638671875,0.02392578125,0.05060872012286165,0
-0.001251220703125,0.0350799560546875,0.0281982421875,0.04502565638068633,0
-0.022552490234375,-0.2504119873046875,-0.029327392578125,0.2531301526035293,0
-0.0289459228515625,0.166107177734375,-0.0889892578125,0.19065295421426715,0
0.008331298828125,0.119232177734375,-0.041046142578125,0.12637447751816375,0
-0.026824951171875,-0.3782501220703125,0.0281982421875,0.38024712190106674,0
-0.05877685546875,0.10858154296875,-0.0027008056640625,0.12349884438124861,0
0.0093994140625,0.2172393798828125,-0.0367889404296875,0.22053281681991535,0
0.0030059814453125,-0.3537445068359375,-0.03997802734375,0.35600906549039985,0
-0.0087127685546875,0.1341400146484375,-0.05596923828125,0.145609105139596,0
0.0062103271484375,0.1916656494140625,-0.0612945556640625,0.20132389794224578,0
-0.0055084228515625,-0.3633270263671875,-0.0346527099609375,0.36501737098221976,0
-0.0076446533203125,0.053192138671875,-5.645751953125E-4,0.05374163270711923,0
-0.0214996337890625,0.0680999755859375,-0.0303955078125,0.0776126782365409,0
-0.01190185546875,-0.07464599609375,-0.0825958251953125,0.1119631601738794,0
0.0030059814453125,0.1117706298828125,-0.0698089599609375,0.13181426523589165,0
-0.0097808837890625,-0.0480194091796875,-0.0346527099609375,0.0600194939440367,0
-1.8310546875E-4,-0.0235137939453125,-0.0602264404296875,0.06465412717024334,0
-0.02362060546875,0.1416015625,-0.0889892578125,0.16890240824562372,0
0.01898193359375,-0.0671844482421875,-0.0570220947265625,0.0901420167045855,0
-0.0108489990234375,-0.110870361328125,-0.03997802734375,0.1183561594135986,0
-0.02362060546875,0.1266937255859375,-0.0506439208984375,0.13847035722320633,0
0.0679931640625,-0.09808349609375,-0.0570220947265625,0.13226852177373036,0
-0.0214996337890625,-0.1257781982421875,-0.05169677734375,0.13767696319226422,0
-0.02789306640625,0.175689697265625,-0.0346527099609375,0.18123383565567244,0
0.04241943359375,-0.10980224609375,-0.0186767578125,0.11918373578653164,0
0.01153564453125,-0.248291015625,-0.0367889404296875,0.25126664257872444,0
-0.0630340576171875,0.269439697265625,-0.0591583251953125,0.2829677549159849,0
0.0605316162109375,0.03082275390625,-0.0570220947265625,0.08868843220216799,0
-0.03533935546875,-0.2610626220703125,-0.06341552734375,0.27096880225490794,0
-0.01617431640625,0.30352783203125,-0.07940673828125,0.3141594872246693,0
0.0051422119140625,-0.0064697265625,-0.0730133056640625,0.07347953803036915,0
-0.0395965576171875,-0.24615478515625,-0.0570220947265625,0.25575688635392774,0
-0.0289459228515625,0.2427978515625,-0.033599853515625,0.2468149374113444,0
0.0093994140625,-0.0299072265625,0.0047607421875,0.031708923847315766,0
0.031768798828125,-0.2972869873046875,-0.0357208251953125,0.3011059394171981,0
0.00726318359375,0.3067169189453125,-0.0964508056640625,0.3216065610594235,0
0.0626678466796875,0.1352081298828125,-0.07513427734375,0.1668941491660024,0
0.0477447509765625,-0.4453582763671875,-0.0346527099609375,0.4492486682030376,0
-0.0651702880859375,0.19061279296875,-0.017608642578125,0.20221391541136777,0
0.0030059814453125,0.255584716796875,-0.00909423828125,0.2557641267936231,0
-0.015106201171875,-0.3420257568359375,-0.031463623046875,0.34380194186228336,0
0.0157928466796875,0.2513275146484375,-0.0538330078125,0.25751296347125785,0
0.0253753662109375,0.1810150146484375,-0.0357208251953125,0.18624264305240973,0
0.022186279296875,-0.31219482421875,-0.045318603515625,0.31624613054173734,0
0.017913818359375,0.20977783203125,-0.0538330078125,0.21731460243178485,0
-0.0097808837890625,0.0095062255859375,-0.0016326904296875,0.013736800596393307,0
-0.001251220703125,-0.3111419677734375,0.04736328125,0.3147287245771211,0
-0.001251220703125,0.117095947265625,0.038848876953125,0.12337852997908917,0
-0.048126220703125,0.06170654296875,0.0111541748046875,0.07904584859367134,0
0.0594635009765625,0.03082275390625,-0.0474395751953125,0.08207596116687643,0
0.08929443359375,0.1000518798828125,-0.101776123046875,0.16835157784044083,0
0.00726318359375,0.039337158203125,-0.0847320556640625,0.09369998457028683,0
-0.02362060546875,0.0766143798828125,-0.0016326904296875,0.08018953725753404,0
0.0125885009765625,-0.063995361328125,0.0750579833984375,0.09943629870522289,0
-0.0300140380859375,-0.132171630859375,0.0665435791015625,0.15099082888009094,0
-0.02789306640625,0.1533203125,-0.019744873046875,0.15708278514935473,0
0.04241943359375,0.1416015625,-0.03997802734375,0.1531295318322158,0
0.017913818359375,-0.176910400390625,-0.017608642578125,0.17868480334944012,0
-0.024688720703125,0.1703643798828125,-0.0186767578125,0.1731541975962435,0
0.055206298828125,0.189544677734375,-0.0186767578125,0.19830214716466155,0
0.00726318359375,-0.2397613525390625,-0.0165557861328125,0.24044199729197177,0
-0.0768890380859375,0.1011199951171875,-0.0069580078125,0.12722260594328189,0
-0.0172271728515625,0.3216400146484375,0.0281982421875,0.3233329790942607,0
0.017913818359375,-0.29302978515625,0.0207366943359375,0.29430829136963305,0
-0.0758209228515625,-0.142822265625,-0.03997802734375,0.16656906846896358,0
-0.048126220703125,0.4239044189453125,-0.0261383056640625,0.42742753835418335,0
-0.01190185546875,-0.2205810546875,0.0313873291015625,0.22312064063815046,0
-0.0438690185546875,-0.1950225830078125,0.034576416015625,0.2028640609286825,0
-0.0641021728515625,0.379150390625,0.0090179443359375,0.38463675148824217,0
0.02325439453125,-0.122589111328125,0.005828857421875,0.1249112991689663,0
-0.0065765380859375,-0.289825439453125,-0.0186767578125,0.2905010455915427,0
-0.0641021728515625,0.2982025146484375,-0.043182373046875,0.30805607549422337,0
0.017913818359375,0.0137786865234375,-0.0048370361328125,0.02311177208856934,0
-0.0300140380859375,-0.3398895263671875,0.005828857421875,0.34126193487580725,0
-0.0172271728515625,0.3067169189453125,-0.0069580078125,0.30727912022212284,0
-0.0193634033203125,-0.0064697265625,-0.0016326904296875,0.02048083074432774,0
-0.0076446533203125,-0.270660400390625,-0.01123046875,0.2710011374373656,0
0.0062103271484375,0.290740966796875,-0.0303955078125,0.29239145820706175,0
0.0211181640625,0.0095062255859375,-0.0346527099609375,0.04167919727991719,0
-0.0087127685546875,-0.2056732177734375,-0.045318603515625,0.21078700308551715,0
-0.015106201171875,0.3173675537109375,-0.045318603515625,0.3209425763075326,0
0.0583953857421875,0.0201568603515625,4.8828125E-4,0.06177830131842708,0
0.045623779296875,-0.327117919921875,0.0175323486328125,0.33074921922799255,0
-0.026824951171875,0.269439697265625,-0.029327392578125,0.2723553275105824,0
0.0062103271484375,0.1927337646484375,-0.07513427734375,0.2069541780946146,0
0.0594635009765625,-0.1960906982421875,-0.06768798828125,0.21579882678796222,0
-0.0055084228515625,0.0638427734375,-0.031463623046875,0.07138768813835769,0
-0.0555877685546875,0.074493408203125,-0.008026123046875,0.09329355031174713,0
0.02325439453125,-0.072509765625,-0.010162353515625,0.07682256442598097,0
-0.036407470703125,0.0457305908203125,-0.02081298828125,0.06204813728847309,0
-0.0257568359375,0.1277618408203125,-0.0154876708984375,0.13124926863477931,0
8.697509765625E-4,-0.049072265625,0.013275146484375,0.05084361547444676,0
-0.0065765380859375,-0.0352325439453125,0.0281982421875,0.045603989611864744,0
0.020050048828125,0.0894012451171875,0.0164794921875,0.09309221637318295,0
-0.0321502685546875,-0.0416259765625,4.8828125E-4,0.052598480125374616,0
0.0381622314453125,0.0830078125,0.0164794921875,0.09283440368569525,0
-0.0214996337890625,-0.030975341796875,0.0569610595703125,0.06831008973694676,0
-0.0087127685546875,-0.0767822265625,0.07293701171875,0.10626020106438584,0
8.697509765625E-4,0.0350799560546875,0.06866455078125,0.07711147980392347,0
-0.0300140380859375,-0.05120849609375,0.0537567138671875,0.08008081443271156,0
0.0253753662109375,-0.0128631591796875,0.0537567138671875,0.060820673789590954,0
-0.0257568359375,-0.0107269287109375,0.05908203125,0.06533887061854378,0
-0.003387451171875,0.0212249755859375,0.06866455078125,0.07194994751948287,0
0.0381622314453125,-0.063995361328125,0.07293701171875,0.10426682050807894,0
-0.022552490234375,-0.0554656982421875,0.0558929443359375,0.08190897218135013,0
0.010467529296875,0.1234893798828125,0.038848876953125,0.1298785253763745,0
0.0147247314453125,-0.072509765625,0.0409698486328125,0.08457548299669695,0
-0.0257568359375,-0.0096588134765625,0.069732666015625,0.07496233710959803,0
0.02325439453125,0.04998779296875,0.0995635986328125,0.11380885942499128,0
-0.03533935546875,-0.167327880859375,0.08038330078125,0.18896815817043033,0
0.031768798828125,0.173553466796875,0.0186004638671875,0.17741488007568704,0
0.0136566162109375,0.0883331298828125,-0.0048370361328125,0.08951336168291747,0
0.008331298828125,-0.131103515625,0.0335235595703125,0.13557791632733712,0
0.0466766357421875,-0.0064697265625,0.095306396484375,0.10631968254673854,0
-0.07049560546875,-0.097015380859375,0.095306396484375,0.15318264824885397,0
0.0498809814453125,0.1341400146484375,0.04736328125,0.15074792287324307,0
0.033905029296875,-0.0554656982421875,0.024993896484375,0.06964689192338024,0
-0.0097808837890625,-0.0927581787109375,0.050567626953125,0.10609821064059365,0
0.0328369140625,0.117095947265625,0.0750579833984375,0.14291054776685366,0
0.008331298828125,-0.16412353515625,0.0654754638671875,0.17689822413176376,0
0.0040740966796875,-0.0554656982421875,0.0633392333984375,0.08429057143447648,0
0.0157928466796875,0.0787506103515625,0.07293701171875,0.10849368790603818,0
0.0264434814453125,-0.141754150390625,0.0558929443359375,0.1546528955126826,0
0.0062103271484375,-0.0011444091796875,0.0196685791015625,0.020657464499197233,0
-0.0140380859375,0.062774658203125,0.0218048095703125,0.06792035990559381,0
0.0488128662109375,-0.1374969482421875,0.071868896484375,0.1626445356153212,0
-0.057708740234375,-0.1151275634765625,0.0537567138671875,0.1395508468526335,0
0.00726318359375,0.210845947265625,-0.0027008056640625,0.2109882974609973,0
0.0019378662109375,-0.0330963134765625,-0.010162353515625,0.03467556373250364,0
-0.0055084228515625,-0.176910400390625,0.0100860595703125,0.1772832792068636,0
0.010467529296875,0.0830078125,0.02606201171875,0.08763044311450419,0
-0.0417327880859375,-0.1023406982421875,-0.0154876708984375,0.11160247339545193,0
-0.0108489990234375,0.0084381103515625,-0.054901123046875,0.05659536905015995,0
0.135101318359375,-0.0117950439453125,-0.02081298828125,0.13720302389272804,0
-0.1312103271484375,-0.49542236328125,0.0324554443359375,0.5135297692019636,0
-0.022552490234375,0.3503875732421875,0.062286376953125,0.35659453031737276,0
0.0935516357421875,0.2491912841796875,0.0324554443359375,0.26814466343413185,0
-1.8310546875E-4,-0.37078857421875,-0.076202392578125,0.37853798347512874,0
-0.0523834228515625,0.3013916015625,-0.111358642578125,0.32554825718915614,0
-0.0417327880859375,0.58795166015625,-0.064483642578125,0.5929476540488711,0
0.283172607421875,-0.028839111328125,-0.03997802734375,0.28743114411385023,0
-0.116302490234375,-0.8895721435546875,-0.19976806640625,0.9191148721345392,0
-0.08221435546875,0.304595947265625,-0.1241455078125,0.3390427678712656,0
0.099945068359375,-0.0096588134765625,0.18585205078125,0.21124226411097638,0
-0.36663818359375,-1.3337860107421875,0.255096435546875,1.4065855365206923,0
-0.0023193359375,0.543212890625,0.0569610595703125,0.5461961059617066,0
0.0605316162109375,0.4558563232421875,-0.076202392578125,0.46612859667223233,0
-0.0449371337890625,-0.93218994140625,-0.111358642578125,0.9398926428741777,0
0.057342529296875,0.32269287109375,-0.120941162109375,0.3493502818279336,0
0.0019378662109375,0.4910125732421875,-0.13372802734375,0.5089010588558612,0
0.04241943359375,-0.4208526611328125,-0.1188201904296875,0.4393570397555178,0
0.14788818359375,0.0095062255859375,-0.120941162109375,0.19128002473838077,0
-0.20684814453125,0.1266937255859375,-0.0698089599609375,0.2524098767673197,0
-0.091796875,0.2417449951171875,-0.0133514404296875,0.258931593061801,0
0.0328369140625,0.144805908203125,-0.052764892578125,0.1575790210163172,0
-0.0395965576171875,0.0915374755859375,-0.14544677734375,0.1763569160862702,0
-0.0332183837890625,0.3408050537109375,-0.18804931640625,0.3906585351138899,0
0.1191253662109375,0.532562255859375,-0.1475830078125,0.5653265900662208,0
0.39501953125,0.10858154296875,-0.1486358642578125,0.4358015622804846,1
0.0040740966796875,1.249481201171875,-0.2881927490234375,1.2822928413335828,1
0.05413818359375,0.246002197265625,-0.18060302734375,0.3099443134953009,1
0.08929443359375,-2.1966552734375,0.1475067138671875,2.2034123801112453,1
-0.217498779296875,0.9682464599609375,0.15283203125,1.004073979345406,1
-0.092864990234375,0.403656005859375,0.05908203125,0.41839307342999876,1
0.0285797119140625,-1.0962371826171875,-0.0580902099609375,1.0981471818380566,1
-0.0779571533203125,0.3067169189453125,-0.1475830078125,0.34918953351453214,1
-0.012969970703125,0.095794677734375,-0.099639892578125,0.13882704569086304,1
0.017913818359375,-0.0330963134765625,-0.0037689208984375,0.037821628979860876,1
-0.0076446533203125,0.140533447265625,0.0218048095703125,0.14242029435844303,1
0.0157928466796875,-0.1034088134765625,0.015411376953125,0.10573697201296206,1
0.0243072509765625,0.048919677734375,0.005828857421875,0.054935898086017045,1
0.03070068359375,0.0585174560546875,-0.0133514404296875,0.06741725000163776,1
0.052001953125,-0.0416259765625,-0.0133514404296875,0.06793516037475728,1
-0.00445556640625,0.04998779296875,-0.00909423828125,0.051003300754002855,1
-0.0332183837890625,0.0787506103515625,0.001556396484375,0.08548416240636418,1
0.0967559814453125,-0.097015380859375,0.0196685791015625,0.13842166402918896,1
-0.08221435546875,0.0712890625,-0.0016326904296875,0.10883012613844607,1
-0.1461334228515625,0.1490631103515625,-5.645751953125E-4,0.20874651347303225,1
-0.045989990234375,-0.6925048828125,0.0793304443359375,0.6985495052746438,1
0.0711822509765625,-0.233367919921875,0.11553955078125,0.26995719419472053,1
-0.0790252685546875,0.4878082275390625,0.0207366943359375,0.49460274000143223,1
-0.038543701171875,-0.188629150390625,0.0335235595703125,0.19542364832174255,1
-0.0843505859375,-0.5838470458984375,0.1592254638671875,0.6110197563876743,1
0.00726318359375,0.222564697265625,0.1783905029296875,0.2853260763413724,1
0.13189697265625,0.2033843994140625,0.1783905029296875,0.3009737477860973,1
0.0679931640625,0.5357513427734375,4.8828125E-4,0.5400488959912338,1
0.10101318359375,0.610321044921875,-0.143310546875,0.6350065779028479,1
0.19049072265625,0.1064453125,-0.1060333251953125,0.24261159498939433,1
0.0722503662109375,0.4356231689453125,-0.0495758056640625,0.4443483107279826,1
-0.0726318359375,0.269439697265625,-0.019744873046875,0.2797552395682354,1
0.008331298828125,-0.550811767578125,0.11553955078125,0.5628609078959339,1
-0.0289459228515625,-0.371856689453125,0.182647705078125,0.415301635093184,1
-0.09393310546875,0.314178466796875,0.1432342529296875,0.3578373771899242,1
-0.1099090576171875,-0.3377685546875,0.09423828125,0.36748938914604734,1
0.1542816162109375,-0.3771820068359375,0.0750579833984375,0.41437034673500023,1
0.2884979248046875,0.0286865234375,0.0558929443359375,0.2952591920162378,1
-0.2132415771484375,0.2257537841796875,-0.087921142578125,0.32274892503065744,1
0.1425628662109375,-0.66693115234375,0.0644073486328125,0.6850325826898663,1
0.1840972900390625,-1.1505584716796875,0.3126220703125,1.2064034017691174,1
-0.2228240966796875,1.3687896728515625,0.161346435546875,1.396162031724788,1
-0.220703125,-0.63604736328125,0.1219329833984375,0.6842030182352601,1
-0.1908721923828125,-1.13458251953125,0.2806549072265625,1.1842621603349703,1
-0.1791534423828125,1.132293701171875,0.2423095703125,1.1717076894414167,1
0.0328369140625,0.542144775390625,0.0452423095703125,0.5450193455133086,1
0.0626678466796875,0.1384124755859375,-0.156097412109375,0.21783405260092054,1
0.087158203125,0.589019775390625,-0.248779296875,0.6453154164645538,1
0.1958160400390625,0.16717529296875,-0.1603546142578125,0.30332342875145496,1
0.08929443359375,0.4100494384765625,-0.0240020751953125,0.42034525985129684,1
-0.01190185546875,0.177825927734375,0.0878448486328125,0.1986968348250971,1
-0.0332183837890625,-0.541229248046875,0.15283203125,0.5633739342026255,1
-0.0182952880859375,-0.38037109375,0.161346435546875,0.4135813810973611,1
-0.0374755859375,-0.247222900390625,0.13897705078125,0.28607377136460094,1
-0.0981903076171875,-0.270660400390625,0.07293701171875,0.29701548196690425,1
-0.02362060546875,-0.2791748046875,0.0537567138671875,0.285282822582806,1
0.0253753662109375,-0.188629150390625,0.0548248291015625,0.19806722968084284,1
-1.8310546875E-4,0.037200927734375,0.04949951171875,0.061920466828872874,1
-0.0417327880859375,0.051055908203125,0.0186004638671875,0.06851502477519979,1
-0.0087127685546875,0.015899658203125,0.001556396484375,0.018197083197049088,1
0.0264434814453125,0.133087158203125,0.0100860595703125,0.13606313970796097,1
0.0136566162109375,0.152252197265625,0.00262451171875,0.15288597973753343,1
-0.001251220703125,0.0989990234375,-5.645751953125E-4,0.09900853973257946,1
0.01153564453125,-7.62939453125E-5,-5.645751953125E-4,0.011549703921253198,1
0.0093994140625,-0.301544189453125,0.0100860595703125,0.3018591985931791,0
0.0381622314453125,-0.7617340087890625,0.0409698486328125,0.7637889659793055,0
0.0062103271484375,0.2065887451171875,0.048431396484375,0.2122806584166622,0
-0.0854034423828125,0.4547882080078125,0.0175323486328125,0.4630695901939299,0
0.075439453125,-0.5167236328125,0.015411376953125,0.5224288796901811,0
-0.015106201171875,-0.13323974609375,0.03564453125,0.13874999049010545,0
-0.050262451171875,0.4356231689453125,0.0526885986328125,0.44166723644124994,0
0.020050048828125,-0.270660400390625,0.0644073486328125,0.278939712761615,0
0.0253753662109375,-0.1715850830078125,0.0431060791015625,0.1787274013033459,0
0.01898193359375,0.3429412841796875,0.0090179443359375,0.34358457694986366,0
0.010467529296875,-0.0938262939453125,0.0068817138671875,0.09465886430146393,0
-0.015106201171875,-0.038421630859375,0.034576416015625,0.053851161326612114,0
-0.02789306640625,0.1373443603515625,0.0558929443359375,0.15088246319723023,0
-0.0065765380859375,-0.0895538330078125,0.0409698486328125,0.0986998903575,0
-0.0087127685546875,0.037200927734375,0.013275146484375,0.04044812572131565,0
-0.012969970703125,0.0819549560546875,0.015411376953125,0.08439398972413256,0
0.0211181640625,-0.1129913330078125,0.03564453125,0.12034762480533329,0
-0.0321502685546875,-0.014984130859375,0.0335235595703125,0.04880566557289935,0
-0.0097808837890625,0.1245574951171875,0.046295166015625,0.13324217678339548,0
0.0370941162109375,-0.213134765625,0.0431060791015625,0.22059133217559657,0
-0.02362060546875,0.12030029296875,0.0111541748046875,0.12310365188186315,0
0.0360260009765625,0.29925537109375,0.024993896484375,0.30245056577281015,0
0.0125885009765625,-0.30474853515625,0.0409698486328125,0.30774773522109405,0
-0.0172271728515625,0.14373779296875,0.0292510986328125,0.1476920965495831,0
0.0392303466796875,0.18634033203125,0.03778076171875,0.19413687284535602,0
0.00726318359375,-0.301544189453125,0.038848876953125,0.304123144909061,0
0.0093994140625,0.20977783203125,0.046295166015625,0.2150309982138946,0
0.0040740966796875,0.0318756103515625,0.0633392333984375,0.07102472306557639,0
0.0402984619140625,-0.1854400634765625,0.0633392333984375,0.20005959527683848,0
0.055206298828125,0.1948699951171875,0.062286376953125,0.21190007829451055,0
-0.0023193359375,0.0595703125,0.0548248291015625,0.08099236591527728,0
0.0275115966796875,0.0169677734375,0.062286376953125,0.07017396982670215,0
0.031768798828125,-0.019256591796875,0.0867767333984375,0.09439424964433399,0
0.0051422119140625,0.0318756103515625,0.074005126953125,0.08074190791653311,0
0.0370941162109375,0.173553466796875,0.060150146484375,0.1873894858757457,0
0.029632568359375,-0.0139312744140625,0.060150146484375,0.06848510521613232,0
0.0275115966796875,0.027618408203125,0.06866455078125,0.07895875478711081,0
0.0243072509765625,0.0798187255859375,0.0995635986328125,0.12990296985410524,0
0.041351318359375,-0.00433349609375,0.10809326171875,0.11581391948920093,0
0.033905029296875,0.006317138671875,0.1006317138671875,0.10637762494279118,0
0.0381622314453125,0.015899658203125,0.1027679443359375,0.11077186205393565,0
0.0147247314453125,0.0553131103515625,0.0878448486328125,0.10484786752348588,0
-0.0055084228515625,0.0936737060546875,0.1006317138671875,0.1375930512932216,0
-0.0406646728515625,-0.132171630859375,0.137908935546875,0.1952993346783947,0
-0.0417327880859375,-0.063995361328125,0.137908935546875,0.15765756048034985,0
-0.0758209228515625,0.107513427734375,0.1251373291015625,0.1815689968577511,0
-0.0864715576171875,-0.02032470703125,0.10382080078125,0.1366352175228214,0
-0.0417327880859375,0.041473388671875,0.0771942138671875,0.0970598486704325,0
-0.0641021728515625,0.1149749755859375,0.0633392333984375,0.1460828260363971,0
